response.time,response,cueTarget,rand_foil_1,rand_foil_2,prac_trials.thisRepN,prac_trials.thisTrialN,prac_trials.thisN,prac_trials.thisIndex,prac_trials.ran,word_1,word_2,cue,file_path,participant,age,gender,handedness,date,expName,psychopyVersion,OS,frameRate,trials.thisRepN,trials.thisTrialN,trials.thisN,trials.thisIndex,trials.ran,catchTrials.thisRepN,catchTrials.thisTrialN,catchTrials.thisN,catchTrials.thisIndex,catchTrials.ran
,,shortValid,BERRY,HURRICANE,0,0,0,11,1,KETCHUP,GONDOLA,long,resources/sound/prac_trials/practice_cue_human11.mp3,5c5d509a05116a0001429a28,36,Female,Right handed,2021-07-26_20h43.51.653,MA Experiment 2,2021.1.2,Win32,60.05645307,,,,,,,,,,
2.8325,response_2,shortValid,ACRE,GINGERBREAD,0,1,1,5,1,NONSENSE,OASIS,short,resources/sound/prac_trials/practice_cue_human5.mp3,5c5d509a05116a0001429a28,36,Female,Right handed,2021-07-26_20h43.51.653,MA Experiment 2,2021.1.2,Win32,60.05645307,,,,,,,,,,
3.0116,response_4,shortValid,PIPING,MONUMENT,0,2,2,2,1,RECENT,TOBACCO,short,resources/sound/prac_trials/practice_cue2.mp3,5c5d509a05116a0001429a28,36,Female,Right handed,2021-07-26_20h43.51.653,MA Experiment 2,2021.1.2,Win32,60.05645307,,,,,,,,,,
1.8926,response_2,longValid,JURY,INJURY,0,3,3,6,1,VACANT,SALVATION,long,resources/sound/prac_trials/practice_cue6.mp3,5c5d509a05116a0001429a28,36,Female,Right handed,2021-07-26_20h43.51.653,MA Experiment 2,2021.1.2,Win32,60.05645307,,,,,,,,,,
1.9432,response_2,longValid,CEREAL,PHOTOGRAPH,0,4,4,8,1,DAGGER,EMPHASIS,long,resources/sound/prac_trials/practice_cue8.mp3,5c5d509a05116a0001429a28,36,Female,Right handed,2021-07-26_20h43.51.653,MA Experiment 2,2021.1.2,Win32,60.05645307,,,,,,,,,,
2.0267,response_1,longFoil,FERTILE,POLIO,0,5,5,0,1,AARDVARK,FALLACY,short,resources/sound/prac_trials/practice_cue0.mp3,5c5d509a05116a0001429a28,36,Female,Right handed,2021-07-26_20h43.51.653,MA Experiment 2,2021.1.2,Win32,60.05645307,,,,,,,,,,
1.6524,response_2,shortFoil,CABIN,HEROIN,0,6,6,1,1,CABLE,REPUBLIC,short,resources/sound/prac_trials/practice_cue_human1.mp3,5c5d509a05116a0001429a28,36,Female,Right handed,2021-07-26_20h43.51.653,MA Experiment 2,2021.1.2,Win32,60.05645307,,,,,,,,,,
1.7285,response_2,longValid,CAPTAIN,STRAWBERRY,0,7,7,9,1,GRUMPY,LABYRINTH,long,resources/sound/prac_trials/practice_cue_human9.mp3,5c5d509a05116a0001429a28,36,Female,Right handed,2021-07-26_20h43.51.653,MA Experiment 2,2021.1.2,Win32,60.05645307,,,,,,,,,,
1.9939,response_2,shortFoil,NATIVE,MECHANIC,0,8,8,10,1,SAFFRON,JAVELIN,long,resources/sound/prac_trials/practice_cue10.mp3,5c5d509a05116a0001429a28,36,Female,Right handed,2021-07-26_20h43.51.653,MA Experiment 2,2021.1.2,Win32,60.05645307,,,,,,,,,,
2.3785,response_2,longValid,UNCLE,PROJECTOR,0,9,9,3,1,EAGER,QUALIFY,short,resources/sound/prac_trials/practice_cue_human3.mp3,5c5d509a05116a0001429a28,36,Female,Right handed,2021-07-26_20h43.51.653,MA Experiment 2,2021.1.2,Win32,60.05645307,,,,,,,,,,
1.7208,response_2,longFoil,GRADUATE,ENAMEL,0,10,10,7,1,BUCKLE,WALLABY,long,resources/sound/prac_trials/practice_cue_human7.mp3,5c5d509a05116a0001429a28,36,Female,Right handed,2021-07-26_20h43.51.653,MA Experiment 2,2021.1.2,Win32,60.05645307,,,,,,,,,,
1.9774,response_2,shortValid,PERSON,FACTORY,0,11,11,4,1,FIZZY,ELECTRIC,short,resources/sound/prac_trials/practice_cue4.mp3,5c5d509a05116a0001429a28,36,Female,Right handed,2021-07-26_20h43.51.653,MA Experiment 2,2021.1.2,Win32,60.05645307,,,,,,,,,,
2.6153,response_2,shortValid,KERNEL,CAMERA,,,,,,DAYLIGHT,MATERIAL,short,resources/sound/trials/audio_stim_human42.mp3,5c5d509a05116a0001429a28,36,Female,Right handed,2021-07-26_20h43.51.653,MA Experiment 2,2021.1.2,Win32,60.05645307,0,0,0,9,1,,,,,
1.4925,response_2,shortFoil,HAMMER,FURNITURE,,,,,,ATHLETE,IVORY,short,resources/sound/trials/audio_stim_comp57.mp3,5c5d509a05116a0001429a28,36,Female,Right handed,2021-07-26_20h43.51.653,MA Experiment 2,2021.1.2,Win32,60.05645307,0,1,1,5,1,,,,,
2.6697,response_2,longValid,CIGAR,MINERAL,,,,,,WORKER,VISITOR,short,resources/sound/trials/audio_stim_comp17.mp3,5c5d509a05116a0001429a28,36,Female,Right handed,2021-07-26_20h43.51.653,MA Experiment 2,2021.1.2,Win32,60.05645307,0,2,2,6,1,,,,,
2.341,response_1,,DUEL,CLARINET,,,,,,VIOLET,LUBRICANT,long,resources/sound/catchTrials/audio_control_human_project07.mp3,5c5d509a05116a0001429a28,36,Female,Right handed,2021-07-26_20h43.51.653,MA Experiment 2,2021.1.2,Win32,60.05645307,,,,,,0,19,19,28,1
1.0204,response_2,shortValid,SHEEPSKIN,ENVELOPE,,,,,,DRIZZLE,CARDINAL,short,resources/sound/trials/audio_stim_comp69.mp3,5c5d509a05116a0001429a28,36,Female,Right handed,2021-07-26_20h43.51.653,MA Experiment 2,2021.1.2,Win32,60.05645307,0,3,3,0,1,,,,,
2.4618,response_1,longValid,ANCHOR,OXYGEN,,,,,,PAINTER,VEHICLE,short,resources/sound/trials/audio_stim_human47.mp3,5c5d509a05116a0001429a28,36,Female,Right handed,2021-07-26_20h43.51.653,MA Experiment 2,2021.1.2,Win32,60.05645307,0,4,4,11,1,,,,,
1.1098,response_2,shortFoil,BEETLE,CROCODILE,,,,,,PARTY,SANCTUARY,long,resources/sound/trials/audio_stim_human50.mp3,5c5d509a05116a0001429a28,36,Female,Right handed,2021-07-26_20h43.51.653,MA Experiment 2,2021.1.2,Win32,60.05645307,0,5,5,31,1,,,,,
2.0243,response_1,longValid,MORNING,INFECTION,,,,,,MINER,EMERALD,long,resources/sound/trials/audio_stim_human6.mp3,5c5d509a05116a0001429a28,36,Female,Right handed,2021-07-26_20h43.51.653,MA Experiment 2,2021.1.2,Win32,60.05645307,0,6,6,30,1,,,,,
1.774,response_2,,PRINCESS,RETAILER,,,,,,IRIS,VIOLIN,short,resources/sound/catchTrials/audio_control_comp_project12.mp3,5c5d509a05116a0001429a28,36,Female,Right handed,2021-07-26_20h43.51.653,MA Experiment 2,2021.1.2,Win32,60.05645307,,,,,,0,2,2,4,1
1.2737,response_2,shortFoil,SEGMENT,CITIZEN,,,,,,MINER,EMERALD,short,resources/sound/trials/audio_stim_human6.mp3,5c5d509a05116a0001429a28,36,Female,Right handed,2021-07-26_20h43.51.653,MA Experiment 2,2021.1.2,Win32,60.05645307,0,7,7,13,1,,,,,
2.5789,response_2,longFoil,DOORWAY,ANTIQUE,,,,,,SACRED,GALAXY,short,resources/sound/trials/audio_stim_comp1.mp3,5c5d509a05116a0001429a28,36,Female,Right handed,2021-07-26_20h43.51.653,MA Experiment 2,2021.1.2,Win32,60.05645307,0,8,8,7,1,,,,,
1.2578,response_1,shortValid,GIRDLE,CINNAMON,,,,,,WHISTLE,TREASURER,long,resources/sound/trials/audio_stim_comp12.mp3,5c5d509a05116a0001429a28,36,Female,Right handed,2021-07-26_20h43.51.653,MA Experiment 2,2021.1.2,Win32,60.05645307,0,9,9,20,1,,,,,
2.6928,response_1,longValid,WALRUS,MOLECULE,,,,,,PAINTER,VEHICLE,long,resources/sound/trials/audio_stim_human47.mp3,5c5d509a05116a0001429a28,36,Female,Right handed,2021-07-26_20h43.51.653,MA Experiment 2,2021.1.2,Win32,60.05645307,0,10,10,28,1,,,,,
1.7589,response_2,,CURFEW,ABDOMEN,,,,,,SPINACH,APRICOT,short,resources/sound/catchTrials/audio_control_comp_project18.mp3,5c5d509a05116a0001429a28,36,Female,Right handed,2021-07-26_20h43.51.653,MA Experiment 2,2021.1.2,Win32,60.05645307,,,,,,0,28,28,5,1
2.021,response_1,longValid,WRITING,DIAMOND,,,,,,MARBLE,CUSTOMER,short,resources/sound/trials/audio_stim_comp65.mp3,5c5d509a05116a0001429a28,36,Female,Right handed,2021-07-26_20h43.51.653,MA Experiment 2,2021.1.2,Win32,60.05645307,0,11,11,4,1,,,,,
1.5469,response_2,longValid,WIRE,ACROBAT,,,,,,DRIZZLE,CARDINAL,long,resources/sound/trials/audio_stim_comp69.mp3,5c5d509a05116a0001429a28,36,Female,Right handed,2021-07-26_20h43.51.653,MA Experiment 2,2021.1.2,Win32,60.05645307,0,12,12,17,1,,,,,
2.4418,response_3,longFoil,HARBOUR,AMMONIA,,,,,,HARDWARE,OVERCOAT,long,resources/sound/trials/audio_stim_human35.mp3,5c5d509a05116a0001429a28,36,Female,Right handed,2021-07-26_20h43.51.653,MA Experiment 2,2021.1.2,Win32,60.05645307,0,13,13,25,1,,,,,
1.5555,response_1,shortFoil,STATION,DISSECTION,,,,,,RECEIPT,LIMOUSINE,long,resources/sound/trials/audio_stim_comp40.mp3,5c5d509a05116a0001429a28,36,Female,Right handed,2021-07-26_20h43.51.653,MA Experiment 2,2021.1.2,Win32,60.05645307,0,14,14,19,1,,,,,
2.058,response_2,,BURNER,LECTURER,,,,,,HOBBY,COLONY,short,resources/sound/catchTrials/audio_control_comp_project04.mp3,5c5d509a05116a0001429a28,36,Female,Right handed,2021-07-26_20h43.51.653,MA Experiment 2,2021.1.2,Win32,60.05645307,,,,,,0,10,10,2,1
2.0023,response_2,shortValid,LOBSTER,CATHEDRAL,,,,,,RUBBER,PROPERTY,short,resources/sound/trials/audio_stim_human0.mp3,5c5d509a05116a0001429a28,36,Female,Right handed,2021-07-26_20h43.51.653,MA Experiment 2,2021.1.2,Win32,60.05645307,0,15,15,12,1,,,,,
1.5574,response_1,shortValid,SOFA,MESSENGER,,,,,,BRAINSTORM,GREEN NEEDLE,short,resources/sound/trials/audio_stim_original.mp3,5c5d509a05116a0001429a28,36,Female,Right handed,2021-07-26_20h43.51.653,MA Experiment 2,2021.1.2,Win32,60.05645307,0,16,16,16,1,,,,,
1.4434,response_2,longFoil,PIANO,EMULSION,,,,,,CONCRETE,ENEMY,long,resources/sound/trials/audio_stim_human67.mp3,5c5d509a05116a0001429a28,36,Female,Right handed,2021-07-26_20h43.51.653,MA Experiment 2,2021.1.2,Win32,60.05645307,0,17,17,27,1,,,,,
2.2623,response_2,shortFoil,TRAITOR,PROFESSOR,,,,,,WORKER,VISITOR,long,resources/sound/trials/audio_stim_comp17.mp3,5c5d509a05116a0001429a28,36,Female,Right handed,2021-07-26_20h43.51.653,MA Experiment 2,2021.1.2,Win32,60.05645307,0,18,18,23,1,,,,,
1.559,response_2,,SODA,ORNAMENT,,,,,,NAVY,RECTANGLE,long,resources/sound/catchTrials/audio_control_human_project06.mp3,5c5d509a05116a0001429a28,36,Female,Right handed,2021-07-26_20h43.51.653,MA Experiment 2,2021.1.2,Win32,60.05645307,,,,,,0,6,6,30,1
2.126,response_1,shortValid,KETTLE,FISHERMAN,,,,,,BRAINSTORM,GREEN NEEDLE,long,resources/sound/trials/audio_stim_original.mp3,5c5d509a05116a0001429a28,36,Female,Right handed,2021-07-26_20h43.51.653,MA Experiment 2,2021.1.2,Win32,60.05645307,0,19,19,33,1,,,,,
1.9806,response_1,longValid,INVOICE,CANDLELIGHT,,,,,,WHISTLE,TREASURER,short,resources/sound/trials/audio_stim_comp12.mp3,5c5d509a05116a0001429a28,36,Female,Right handed,2021-07-26_20h43.51.653,MA Experiment 2,2021.1.2,Win32,60.05645307,0,20,20,3,1,,,,,
3.1613,response_1,shortValid,WINDOW,REFEREE,,,,,,ROBBER,RATTLESNAKE,long,resources/sound/trials/audio_stim_human64.mp3,5c5d509a05116a0001429a28,36,Female,Right handed,2021-07-26_20h43.51.653,MA Experiment 2,2021.1.2,Win32,60.05645307,0,21,21,32,1,,,,,
2.5918,response_2,shortFoil,FAIRY,GALLERY,,,,,,CONCRETE,ENEMY,short,resources/sound/trials/audio_stim_human67.mp3,5c5d509a05116a0001429a28,36,Female,Right handed,2021-07-26_20h43.51.653,MA Experiment 2,2021.1.2,Win32,60.05645307,0,22,22,10,1,,,,,
2.104,response_1,,BUTTER,INSTRUMENT,,,,,,VIOLET,LUBRICANT,short,resources/sound/catchTrials/audio_control_comp_project07.mp3,5c5d509a05116a0001429a28,36,Female,Right handed,2021-07-26_20h43.51.653,MA Experiment 2,2021.1.2,Win32,60.05645307,,,,,,0,27,27,3,1
1.5564,response_2,shortValid,WAFER,AMBULANCE,,,,,,MINER,EMERALD,short,resources/sound/trials/audio_stim_comp6.mp3,5c5d509a05116a0001429a28,36,Female,Right handed,2021-07-26_20h43.51.653,MA Experiment 2,2021.1.2,Win32,60.05645307,0,23,23,1,1,,,,,
2.0711,response_1,shortFoil,LIGHTNING,APPLIANCE,,,,,,RUBBER,PROPERTY,long,resources/sound/trials/audio_stim_human0.mp3,5c5d509a05116a0001429a28,36,Female,Right handed,2021-07-26_20h43.51.653,MA Experiment 2,2021.1.2,Win32,60.05645307,0,24,24,29,1,,,,,
2.4081,response_1,longFoil,PODIUM,INDUSTRY,,,,,,HARDWARE,OVERCOAT,short,resources/sound/trials/audio_stim_human35.mp3,5c5d509a05116a0001429a28,36,Female,Right handed,2021-07-26_20h43.51.653,MA Experiment 2,2021.1.2,Win32,60.05645307,0,25,25,8,1,,,,,
1.7789,response_2,longFoil,TEMPLE,HONEYMOON,,,,,,MINER,EMERALD,long,resources/sound/trials/audio_stim_comp6.mp3,5c5d509a05116a0001429a28,36,Female,Right handed,2021-07-26_20h43.51.653,MA Experiment 2,2021.1.2,Win32,60.05645307,0,26,26,18,1,,,,,
1.3737,response_1,,NECKLACE,CARNATION,,,,,,POISON,REVOLVER,long,resources/sound/catchTrials/audio_control_human_project01.mp3,5c5d509a05116a0001429a28,36,Female,Right handed,2021-07-26_20h43.51.653,MA Experiment 2,2021.1.2,Win32,60.05645307,,,,,,0,18,18,25,1
1.6249,response_1,longFoil,TWEEZER,MERCURY,,,,,,SACRED,GALAXY,long,resources/sound/trials/audio_stim_comp1.mp3,5c5d509a05116a0001429a28,36,Female,Right handed,2021-07-26_20h43.51.653,MA Experiment 2,2021.1.2,Win32,60.05645307,0,27,27,24,1,,,,,
1.7942,response_1,shortFoil,NAPKIN,INSTRUCTOR,,,,,,RECEIPT,LIMOUSINE,short,resources/sound/trials/audio_stim_comp40.mp3,5c5d509a05116a0001429a28,36,Female,Right handed,2021-07-26_20h43.51.653,MA Experiment 2,2021.1.2,Win32,60.05645307,0,28,28,2,1,,,,,
2.6563,response_1,longFoil,EARTHWORM,SAXOPHONE,,,,,,DAYLIGHT,MATERIAL,long,resources/sound/trials/audio_stim_human42.mp3,5c5d509a05116a0001429a28,36,Female,Right handed,2021-07-26_20h43.51.653,MA Experiment 2,2021.1.2,Win32,60.05645307,0,29,29,26,1,,,,,
1.6705,response_2,shortValid,SCOOTER,OPENING,,,,,,MARBLE,CUSTOMER,long,resources/sound/trials/audio_stim_comp65.mp3,5c5d509a05116a0001429a28,36,Female,Right handed,2021-07-26_20h43.51.653,MA Experiment 2,2021.1.2,Win32,60.05645307,0,30,30,21,1,,,,,
1.6977,response_2,,TUMBLE,ALCOHOL,,,,,,NAVY,RECTANGLE,short,resources/sound/catchTrials/audio_control_human_project06.mp3,5c5d509a05116a0001429a28,36,Female,Right handed,2021-07-26_20h43.51.653,MA Experiment 2,2021.1.2,Win32,60.05645307,,,,,,0,31,31,14,1
1.758,response_1,longFoil,MOONLIGHT,GYMNASTICS,,,,,,ATHLETE,IVORY,long,resources/sound/trials/audio_stim_comp57.mp3,5c5d509a05116a0001429a28,36,Female,Right handed,2021-07-26_20h43.51.653,MA Experiment 2,2021.1.2,Win32,60.05645307,0,31,31,22,1,,,,,
1.2586,response_2,shortFoil,RABBI,POTATO,,,,,,PARTY,SANCTUARY,short,resources/sound/trials/audio_stim_human50.mp3,5c5d509a05116a0001429a28,36,Female,Right handed,2021-07-26_20h43.51.653,MA Experiment 2,2021.1.2,Win32,60.05645307,0,32,32,14,1,,,,,
2.4256,response_1,shortFoil,CHIPMUNK,CONVENTION,,,,,,ROBBER,RATTLESNAKE,short,resources/sound/trials/audio_stim_human64.mp3,5c5d509a05116a0001429a28,36,Female,Right handed,2021-07-26_20h43.51.653,MA Experiment 2,2021.1.2,Win32,60.05645307,0,33,33,15,1,,,,,
1.6108,response_2,longFoil,SADDLE,HANDKERCHIEF,,,,,,DRIZZLE,CARDINAL,short,resources/sound/trials/audio_stim_comp69.mp3,5c5d509a05116a0001429a28,36,Female,Right handed,2021-07-26_20h43.51.653,MA Experiment 2,2021.1.2,Win32,60.05645307,1,0,34,0,1,,,,,
2.2607,response_2,longFoil,SINGER,DESTROYER,,,,,,DAYLIGHT,MATERIAL,short,resources/sound/trials/audio_stim_human42.mp3,5c5d509a05116a0001429a28,36,Female,Right handed,2021-07-26_20h43.51.653,MA Experiment 2,2021.1.2,Win32,60.05645307,1,1,35,9,1,,,,,
2.1949,response_2,shortValid,MISTRESS,GORILLA,,,,,,MINER,EMERALD,long,resources/sound/trials/audio_stim_comp6.mp3,5c5d509a05116a0001429a28,36,Female,Right handed,2021-07-26_20h43.51.653,MA Experiment 2,2021.1.2,Win32,60.05645307,1,2,36,18,1,,,,,
1.3256,response_2,,PICTURE,CHOCOLATE,,,,,,BORDER,ALGEBRA,long,resources/sound/catchTrials/audio_control_comp_project00.mp3,5c5d509a05116a0001429a28,36,Female,Right handed,2021-07-26_20h43.51.653,MA Experiment 2,2021.1.2,Win32,60.05645307,,,,,,0,7,7,16,1
1.1751,response_1,longValid,DECOY,LEMONADE,,,,,,ROBBER,RATTLESNAKE,long,resources/sound/trials/audio_stim_human64.mp3,5c5d509a05116a0001429a28,36,Female,Right handed,2021-07-26_20h43.51.653,MA Experiment 2,2021.1.2,Win32,60.05645307,1,3,37,32,1,,,,,
2.2252,response_2,shortValid,RUSTY,TEMPERATURE,,,,,,DAYLIGHT,MATERIAL,long,resources/sound/trials/audio_stim_human42.mp3,5c5d509a05116a0001429a28,36,Female,Right handed,2021-07-26_20h43.51.653,MA Experiment 2,2021.1.2,Win32,60.05645307,1,4,38,26,1,,,,,
2.5043,response_1,longValid,TORTURE,NEWSPAPER,,,,,,SACRED,GALAXY,short,resources/sound/trials/audio_stim_comp1.mp3,5c5d509a05116a0001429a28,36,Female,Right handed,2021-07-26_20h43.51.653,MA Experiment 2,2021.1.2,Win32,60.05645307,1,5,39,7,1,,,,,
1.4525,response_2,longFoil,EVENING,GOVERNMENT,,,,,,PARTY,SANCTUARY,short,resources/sound/trials/audio_stim_human50.mp3,5c5d509a05116a0001429a28,36,Female,Right handed,2021-07-26_20h43.51.653,MA Experiment 2,2021.1.2,Win32,60.05645307,1,6,40,14,1,,,,,
1.8924,response_2,,MUSCLE,JANITOR,,,,,,NAVY,RECTANGLE,short,resources/sound/catchTrials/audio_control_comp_project06.mp3,5c5d509a05116a0001429a28,36,Female,Right handed,2021-07-26_20h43.51.653,MA Experiment 2,2021.1.2,Win32,60.05645307,,,,,,0,3,3,6,1
2.4075,response_1,longFoil,NURSERY,SETTLEMENT,,,,,,BRAINSTORM,GREEN NEEDLE,long,resources/sound/trials/audio_stim_original.mp3,5c5d509a05116a0001429a28,36,Female,Right handed,2021-07-26_20h43.51.653,MA Experiment 2,2021.1.2,Win32,60.05645307,1,7,41,33,1,,,,,
1.6233,response_2,shortValid,LIQUID,MEDICINE,,,,,,CONCRETE,ENEMY,short,resources/sound/trials/audio_stim_human67.mp3,5c5d509a05116a0001429a28,36,Female,Right handed,2021-07-26_20h43.51.653,MA Experiment 2,2021.1.2,Win32,60.05645307,1,8,42,10,1,,,,,
2.5393,response_2,shortFoil,BISHOP,ATHLETICS,,,,,,MINER,EMERALD,long,resources/sound/trials/audio_stim_human6.mp3,5c5d509a05116a0001429a28,36,Female,Right handed,2021-07-26_20h43.51.653,MA Experiment 2,2021.1.2,Win32,60.05645307,1,9,43,30,1,,,,,
0.9496,response_2,longFoil,KENNEL,MICROSCOPE,,,,,,DRIZZLE,CARDINAL,long,resources/sound/trials/audio_stim_comp69.mp3,5c5d509a05116a0001429a28,36,Female,Right handed,2021-07-26_20h43.51.653,MA Experiment 2,2021.1.2,Win32,60.05645307,1,10,44,17,1,,,,,
2.0917,response_2,,FATHER,POLICEMAN,,,,,,CORNER,ENGINEER,short,resources/sound/catchTrials/audio_control_comp_project14.mp3,5c5d509a05116a0001429a28,36,Female,Right handed,2021-07-26_20h43.51.653,MA Experiment 2,2021.1.2,Win32,60.05645307,,,,,,0,9,9,1,1
1.902,response_1,longValid,VAPOUR,BEVERAGE,,,,,,MINER,EMERALD,short,resources/sound/trials/audio_stim_comp6.mp3,5c5d509a05116a0001429a28,36,Female,Right handed,2021-07-26_20h43.51.653,MA Experiment 2,2021.1.2,Win32,60.05645307,1,11,45,1,1,,,,,
2.1403,response_1,shortFoil,POLO,CIGARETTE,,,,,,HARDWARE,OVERCOAT,long,resources/sound/trials/audio_stim_human35.mp3,5c5d509a05116a0001429a28,36,Female,Right handed,2021-07-26_20h43.51.653,MA Experiment 2,2021.1.2,Win32,60.05645307,1,12,46,25,1,,,,,
1.9564,response_1,longFoil,MURDER,NEIGHBOURHOOD,,,,,,RUBBER,PROPERTY,short,resources/sound/trials/audio_stim_human0.mp3,5c5d509a05116a0001429a28,36,Female,Right handed,2021-07-26_20h43.51.653,MA Experiment 2,2021.1.2,Win32,60.05645307,1,13,47,12,1,,,,,
1.7088,response_1,longFoil,NOVEL,ALPHABET,,,,,,ATHLETE,IVORY,short,resources/sound/trials/audio_stim_comp57.mp3,5c5d509a05116a0001429a28,36,Female,Right handed,2021-07-26_20h43.51.653,MA Experiment 2,2021.1.2,Win32,60.05645307,1,14,48,5,1,,,,,
1.8757,response_1,,OFFICE,CORRIDOR,,,,,,POISON,REVOLVER,short,resources/sound/catchTrials/audio_control_human_project01.mp3,5c5d509a05116a0001429a28,36,Female,Right handed,2021-07-26_20h43.51.653,MA Experiment 2,2021.1.2,Win32,60.05645307,,,,,,0,30,30,9,1
1.646,response_1,shortValid,DIVING,SPECIALIST,,,,,,RECEIPT,LIMOUSINE,long,resources/sound/trials/audio_stim_comp40.mp3,5c5d509a05116a0001429a28,36,Female,Right handed,2021-07-26_20h43.51.653,MA Experiment 2,2021.1.2,Win32,60.05645307,1,15,49,19,1,,,,,
1.428,response_2,shortValid,CANTEEN,ICICLE,,,,,,HARDWARE,OVERCOAT,short,resources/sound/trials/audio_stim_human35.mp3,5c5d509a05116a0001429a28,36,Female,Right handed,2021-07-26_20h43.51.653,MA Experiment 2,2021.1.2,Win32,60.05645307,1,16,50,8,1,,,,,
2.9089,response_1,shortFoil,HAMSTER,MINISTER,,,,,,CONCRETE,ENEMY,long,resources/sound/trials/audio_stim_human67.mp3,5c5d509a05116a0001429a28,36,Female,Right handed,2021-07-26_20h43.51.653,MA Experiment 2,2021.1.2,Win32,60.05645307,1,17,51,27,1,,,,,
1.7644,response_2,longValid,DANCER,VINEGAR,,,,,,RECEIPT,LIMOUSINE,short,resources/sound/trials/audio_stim_comp40.mp3,5c5d509a05116a0001429a28,36,Female,Right handed,2021-07-26_20h43.51.653,MA Experiment 2,2021.1.2,Win32,60.05645307,1,18,52,2,1,,,,,
1.5616,response_1,,STOCKING,BUTTERFLY,,,,,,VIOLET,LUBRICANT,short,resources/sound/catchTrials/audio_control_human_project07.mp3,5c5d509a05116a0001429a28,36,Female,Right handed,2021-07-26_20h43.51.653,MA Experiment 2,2021.1.2,Win32,60.05645307,,,,,,0,22,22,12,1
0.8784,response_1,longFoil,INCOME,PHYSICIAN,,,,,,BRAINSTORM,GREEN NEEDLE,short,resources/sound/trials/audio_stim_original.mp3,5c5d509a05116a0001429a28,36,Female,Right handed,2021-07-26_20h43.51.653,MA Experiment 2,2021.1.2,Win32,60.05645307,1,19,53,16,1,,,,,
2.9775,response_1,shortValid,SHOULDER,ASBESTOS,,,,,,PAINTER,VEHICLE,short,resources/sound/trials/audio_stim_human47.mp3,5c5d509a05116a0001429a28,36,Female,Right handed,2021-07-26_20h43.51.653,MA Experiment 2,2021.1.2,Win32,60.05645307,1,20,54,11,1,,,,,
1.9228,response_2,longValid,DWELLER,AVENUE,,,,,,ROBBER,RATTLESNAKE,short,resources/sound/trials/audio_stim_human64.mp3,5c5d509a05116a0001429a28,36,Female,Right handed,2021-07-26_20h43.51.653,MA Experiment 2,2021.1.2,Win32,60.05645307,1,21,55,15,1,,,,,
1.6384,response_2,shortValid,FOREARM,COMMITTEE,,,,,,MINER,EMERALD,short,resources/sound/trials/audio_stim_human6.mp3,5c5d509a05116a0001429a28,36,Female,Right handed,2021-07-26_20h43.51.653,MA Experiment 2,2021.1.2,Win32,60.05645307,1,22,56,13,1,,,,,
1.8738,response_1,,FEVER,UMBRELLA,,,,,,JUGGLER,DANDELION,long,resources/sound/catchTrials/audio_control_human_project09.mp3,5c5d509a05116a0001429a28,36,Female,Right handed,2021-07-26_20h43.51.653,MA Experiment 2,2021.1.2,Win32,60.05645307,,,,,,0,24,24,31,1
0.9228,response_1,shortValid,LEADER,GRASSHOPPER,,,,,,MARBLE,CUSTOMER,short,resources/sound/trials/audio_stim_comp65.mp3,5c5d509a05116a0001429a28,36,Female,Right handed,2021-07-26_20h43.51.653,MA Experiment 2,2021.1.2,Win32,60.05645307,1,23,57,4,1,,,,,
1.619,response_2,longFoil,MURAL,HOSPITAL,,,,,,WORKER,VISITOR,short,resources/sound/trials/audio_stim_comp17.mp3,5c5d509a05116a0001429a28,36,Female,Right handed,2021-07-26_20h43.51.653,MA Experiment 2,2021.1.2,Win32,60.05645307,1,24,58,6,1,,,,,
1.592,response_2,longValid,DIAL,PROPELLER,,,,,,PARTY,SANCTUARY,long,resources/sound/trials/audio_stim_human50.mp3,5c5d509a05116a0001429a28,36,Female,Right handed,2021-07-26_20h43.51.653,MA Experiment 2,2021.1.2,Win32,60.05645307,1,25,59,31,1,,,,,
2.358,response_1,shortFoil,MEDICINE,FAMILY,,,,,,PAINTER,VEHICLE,long,resources/sound/trials/audio_stim_human47.mp3,5c5d509a05116a0001429a28,36,Female,Right handed,2021-07-26_20h43.51.653,MA Experiment 2,2021.1.2,Win32,60.05645307,1,26,60,28,1,,,,,
1.6255,response_2,,NEIGHBOUR,INTERVIEW,,,,,,HOBBY,COLONY,short,resources/sound/catchTrials/audio_control_human_project04.mp3,5c5d509a05116a0001429a28,36,Female,Right handed,2021-07-26_20h43.51.653,MA Experiment 2,2021.1.2,Win32,60.05645307,,,,,,0,23,23,11,1
1.9561,response_1,longValid,VALLEY,ATTENDANT,,,,,,MARBLE,CUSTOMER,long,resources/sound/trials/audio_stim_comp65.mp3,5c5d509a05116a0001429a28,36,Female,Right handed,2021-07-26_20h43.51.653,MA Experiment 2,2021.1.2,Win32,60.05645307,1,27,61,21,1,,,,,
1.3108,response_1,shortFoil,VILLAGE,CABINET,,,,,,SACRED,GALAXY,long,resources/sound/trials/audio_stim_comp1.mp3,5c5d509a05116a0001429a28,36,Female,Right handed,2021-07-26_20h43.51.653,MA Experiment 2,2021.1.2,Win32,60.05645307,1,28,62,24,1,,,,,
2.6609,response_1,shortFoil,PATIENT,FIREWOOD,,,,,,ATHLETE,IVORY,long,resources/sound/trials/audio_stim_comp57.mp3,5c5d509a05116a0001429a28,36,Female,Right handed,2021-07-26_20h43.51.653,MA Experiment 2,2021.1.2,Win32,60.05645307,1,29,63,22,1,,,,,
2.5577,response_1,shortFoil,HURDLE,INSTITUTE,,,,,,WHISTLE,TREASURER,short,resources/sound/trials/audio_stim_comp12.mp3,5c5d509a05116a0001429a28,36,Female,Right handed,2021-07-26_20h43.51.653,MA Experiment 2,2021.1.2,Win32,60.05645307,1,30,64,3,1,,,,,
1.4944,response_1,,CRYSTAL,MOSQUITO,,,,,,JUGGLER,DANDELION,short,resources/sound/catchTrials/audio_control_human_project09.mp3,5c5d509a05116a0001429a28,36,Female,Right handed,2021-07-26_20h43.51.653,MA Experiment 2,2021.1.2,Win32,60.05645307,,,,,,0,20,20,15,1
1.6961,response_3,longFoil,VESSEL,CAPITAL,,,,,,WHISTLE,TREASURER,long,resources/sound/trials/audio_stim_comp12.mp3,5c5d509a05116a0001429a28,36,Female,Right handed,2021-07-26_20h43.51.653,MA Experiment 2,2021.1.2,Win32,60.05645307,1,31,65,20,1,,,,,
2.4253,response_2,shortValid,SULPHUR,TANGERINE,,,,,,WORKER,VISITOR,long,resources/sound/trials/audio_stim_comp17.mp3,5c5d509a05116a0001429a28,36,Female,Right handed,2021-07-26_20h43.51.653,MA Experiment 2,2021.1.2,Win32,60.05645307,1,32,66,23,1,,,,,
1.7083,response_1,longFoil,MEASLES,ADMIRAL,,,,,,RUBBER,PROPERTY,long,resources/sound/trials/audio_stim_human0.mp3,5c5d509a05116a0001429a28,36,Female,Right handed,2021-07-26_20h43.51.653,MA Experiment 2,2021.1.2,Win32,60.05645307,1,33,67,29,1,,,,,
3.0432,response_2,longValid,OLIVE,HEADQUARTERS,,,,,,MINER,EMERALD,long,resources/sound/trials/audio_stim_comp6.mp3,5c5d509a05116a0001429a28,36,Female,Right handed,2021-07-26_20h43.51.653,MA Experiment 2,2021.1.2,Win32,60.05645307,2,0,68,18,1,,,,,
1.576,response_2,shortFoil,GIRDLE,HANDKERCHIEF,,,,,,RUBBER,PROPERTY,short,resources/sound/trials/audio_stim_human0.mp3,5c5d509a05116a0001429a28,36,Female,Right handed,2021-07-26_20h43.51.653,MA Experiment 2,2021.1.2,Win32,60.05645307,2,1,69,12,1,,,,,
2.4094,response_1,longValid,DWELLER,CABINET,,,,,,SACRED,GALAXY,long,resources/sound/trials/audio_stim_comp1.mp3,5c5d509a05116a0001429a28,36,Female,Right handed,2021-07-26_20h43.51.653,MA Experiment 2,2021.1.2,Win32,60.05645307,2,2,70,24,1,,,,,
1.4436,response_2,,SADDLE,ICICLE,,,,,,HOBBY,COLONY,long,resources/sound/catchTrials/audio_control_comp_project04.mp3,5c5d509a05116a0001429a28,36,Female,Right handed,2021-07-26_20h43.51.653,MA Experiment 2,2021.1.2,Win32,60.05645307,,,,,,0,0,0,18,1
1.6831,response_2,shortFoil,SODA,CROCODILE,,,,,,DRIZZLE,CARDINAL,long,resources/sound/trials/audio_stim_comp69.mp3,5c5d509a05116a0001429a28,36,Female,Right handed,2021-07-26_20h43.51.653,MA Experiment 2,2021.1.2,Win32,60.05645307,2,3,71,17,1,,,,,
2.3304,response_1,shortFoil,CRYSTAL,MINERAL,,,,,,HARDWARE,OVERCOAT,short,resources/sound/trials/audio_stim_human35.mp3,5c5d509a05116a0001429a28,36,Female,Right handed,2021-07-26_20h43.51.653,MA Experiment 2,2021.1.2,Win32,60.05645307,2,4,72,8,1,,,,,
1.7578,response_2,shortFoil,DIVING,ABDOMEN,,,,,,WORKER,VISITOR,short,resources/sound/trials/audio_stim_comp17.mp3,5c5d509a05116a0001429a28,36,Female,Right handed,2021-07-26_20h43.51.653,MA Experiment 2,2021.1.2,Win32,60.05645307,2,5,73,6,1,,,,,
2.049,response_1,longValid,FOREARM,REFEREE,,,,,,ATHLETE,IVORY,short,resources/sound/trials/audio_stim_comp57.mp3,5c5d509a05116a0001429a28,36,Female,Right handed,2021-07-26_20h43.51.653,MA Experiment 2,2021.1.2,Win32,60.05645307,2,6,74,5,1,,,,,
1.6472,response_2,,VILLAGE,HURRICANE,,,,,,CORNER,ENGINEER,long,resources/sound/catchTrials/audio_control_comp_project14.mp3,5c5d509a05116a0001429a28,36,Female,Right handed,2021-07-26_20h43.51.653,MA Experiment 2,2021.1.2,Win32,60.05645307,,,,,,0,4,4,17,1
1.8538,response_2,longValid,PERSON,FACTORY,,,,,,DRIZZLE,CARDINAL,short,resources/sound/trials/audio_stim_comp69.mp3,5c5d509a05116a0001429a28,36,Female,Right handed,2021-07-26_20h43.51.653,MA Experiment 2,2021.1.2,Win32,60.05645307,2,7,75,0,1,,,,,
1.8693,response_1,longValid,VALLEY,CARNATION,,,,,,BRAINSTORM,GREEN NEEDLE,long,resources/sound/trials/audio_stim_original.mp3,5c5d509a05116a0001429a28,36,Female,Right handed,2021-07-26_20h43.51.653,MA Experiment 2,2021.1.2,Win32,60.05645307,2,8,76,33,1,,,,,
1.5945,response_1,longValid,CAPTAIN,ACROBAT,,,,,,BRAINSTORM,GREEN NEEDLE,short,resources/sound/trials/audio_stim_original.mp3,5c5d509a05116a0001429a28,36,Female,Right handed,2021-07-26_20h43.51.653,MA Experiment 2,2021.1.2,Win32,60.05645307,2,9,77,16,1,,,,,
1.3093,response_2,shortValid,HURDLE,MESSENGER,,,,,,SACRED,GALAXY,short,resources/sound/trials/audio_stim_comp1.mp3,5c5d509a05116a0001429a28,36,Female,Right handed,2021-07-26_20h43.51.653,MA Experiment 2,2021.1.2,Win32,60.05645307,2,10,78,7,1,,,,,
1.9948,response_2,,HAMSTER,FURNITURE,,,,,,JOURNAL,ROBBERY,long,resources/sound/catchTrials/audio_control_human_project02.mp3,5c5d509a05116a0001429a28,36,Female,Right handed,2021-07-26_20h43.51.653,MA Experiment 2,2021.1.2,Win32,60.05645307,,,,,,0,8,8,29,1
3.0789,response_1,shortFoil,NATIVE,CLARINET,,,,,,ROBBER,RATTLESNAKE,long,resources/sound/trials/audio_stim_human64.mp3,5c5d509a05116a0001429a28,36,Female,Right handed,2021-07-26_20h43.51.653,MA Experiment 2,2021.1.2,Win32,60.05645307,2,11,79,32,1,,,,,
1.7284,response_1,longValid,NOVEL,FIREWOOD,,,,,,HARDWARE,OVERCOAT,long,resources/sound/trials/audio_stim_human35.mp3,5c5d509a05116a0001429a28,36,Female,Right handed,2021-07-26_20h43.51.653,MA Experiment 2,2021.1.2,Win32,60.05645307,2,12,80,25,1,,,,,
1.6131,response_1,longValid,FEVER,MERCURY,,,,,,CONCRETE,ENEMY,short,resources/sound/trials/audio_stim_human67.mp3,5c5d509a05116a0001429a28,36,Female,Right handed,2021-07-26_20h43.51.653,MA Experiment 2,2021.1.2,Win32,60.05645307,2,13,81,10,1,,,,,
1.7952,response_2,shortFoil,PRINCESS,PROJECTOR,,,,,,MINER,EMERALD,short,resources/sound/trials/audio_stim_comp6.mp3,5c5d509a05116a0001429a28,36,Female,Right handed,2021-07-26_20h43.51.653,MA Experiment 2,2021.1.2,Win32,60.05645307,2,14,82,1,1,,,,,
0.9789,response_2,,GRADUATE,INTERVIEW,,,,,,BORDER,ALGEBRA,short,resources/sound/catchTrials/audio_control_comp_project00.mp3,5c5d509a05116a0001429a28,36,Female,Right handed,2021-07-26_20h43.51.653,MA Experiment 2,2021.1.2,Win32,60.05645307,,,,,,0,25,25,0,1
3.1043,response_2,shortFoil,TUMBLE,HEADQUARTERS,,,,,,PAINTER,VEHICLE,short,resources/sound/trials/audio_stim_human47.mp3,5c5d509a05116a0001429a28,36,Female,Right handed,2021-07-26_20h43.51.653,MA Experiment 2,2021.1.2,Win32,60.05645307,2,15,83,11,1,,,,,
1.5586,response_2,shortValid,PODIUM,PHYSICIAN,,,,,,ATHLETE,IVORY,long,resources/sound/trials/audio_stim_comp57.mp3,5c5d509a05116a0001429a28,36,Female,Right handed,2021-07-26_20h43.51.653,MA Experiment 2,2021.1.2,Win32,60.05645307,2,16,84,22,1,,,,,
1.6634,response_2,shortFoil,DOORWAY,LEMONADE,,,,,,DAYLIGHT,MATERIAL,long,resources/sound/trials/audio_stim_human42.mp3,5c5d509a05116a0001429a28,36,Female,Right handed,2021-07-26_20h43.51.653,MA Experiment 2,2021.1.2,Win32,60.05645307,2,17,85,26,1,,,,,
1.4776,response_1,longValid,WRITING,CITIZEN,,,,,,RUBBER,PROPERTY,long,resources/sound/trials/audio_stim_human0.mp3,5c5d509a05116a0001429a28,36,Female,Right handed,2021-07-26_20h43.51.653,MA Experiment 2,2021.1.2,Win32,60.05645307,2,18,86,29,1,,,,,
2.3922,response_2,,TRAITOR,POTATO,,,,,,JOURNAL,ROBBERY,short,resources/sound/catchTrials/audio_control_human_project02.mp3,5c5d509a05116a0001429a28,36,Female,Right handed,2021-07-26_20h43.51.653,MA Experiment 2,2021.1.2,Win32,60.05645307,,,,,,0,15,15,13,1
1.9091,response_1,shortFoil,TORTURE,CAMERA,,,,,,MARBLE,CUSTOMER,short,resources/sound/trials/audio_stim_comp65.mp3,5c5d509a05116a0001429a28,36,Female,Right handed,2021-07-26_20h43.51.653,MA Experiment 2,2021.1.2,Win32,60.05645307,2,19,87,4,1,,,,,
2.0374,response_1,longFoil,TWEEZER,ASBESTOS,,,,,,RECEIPT,LIMOUSINE,long,resources/sound/trials/audio_stim_comp40.mp3,5c5d509a05116a0001429a28,36,Female,Right handed,2021-07-26_20h43.51.653,MA Experiment 2,2021.1.2,Win32,60.05645307,2,20,88,19,1,,,,,
1.529,response_2,shortValid,NURSERY,GRASSHOPPER,,,,,,PARTY,SANCTUARY,short,resources/sound/trials/audio_stim_human50.mp3,5c5d509a05116a0001429a28,36,Female,Right handed,2021-07-26_20h43.51.653,MA Experiment 2,2021.1.2,Win32,60.05645307,2,21,89,14,1,,,,,
2.2611,response_1,shortValid,MEASLES,INFECTION,,,,,,WHISTLE,TREASURER,short,resources/sound/trials/audio_stim_comp12.mp3,5c5d509a05116a0001429a28,36,Female,Right handed,2021-07-26_20h43.51.653,MA Experiment 2,2021.1.2,Win32,60.05645307,2,22,90,3,1,,,,,
1.6769,response_2,,FERTILE,RETAILER,,,,,,IRIS,VIOLIN,long,resources/sound/catchTrials/audio_control_human_project12.mp3,5c5d509a05116a0001429a28,36,Female,Right handed,2021-07-26_20h43.51.653,MA Experiment 2,2021.1.2,Win32,60.05645307,,,,,,0,13,13,24,1
1.5029,response_1,longValid,JURY,CATHEDRAL,,,,,,DAYLIGHT,MATERIAL,short,resources/sound/trials/audio_stim_human42.mp3,5c5d509a05116a0001429a28,36,Female,Right handed,2021-07-26_20h43.51.653,MA Experiment 2,2021.1.2,Win32,60.05645307,2,23,91,9,1,,,,,
1.791,response_2,longFoil,BUTTER,MONUMENT,,,,,,PARTY,SANCTUARY,long,resources/sound/trials/audio_stim_human50.mp3,5c5d509a05116a0001429a28,36,Female,Right handed,2021-07-26_20h43.51.653,MA Experiment 2,2021.1.2,Win32,60.05645307,2,24,92,31,1,,,,,
2.4256,response_2,longValid,PATIENT,EMULSION,,,,,,CONCRETE,ENEMY,long,resources/sound/trials/audio_stim_human67.mp3,5c5d509a05116a0001429a28,36,Female,Right handed,2021-07-26_20h43.51.653,MA Experiment 2,2021.1.2,Win32,60.05645307,2,25,93,27,1,,,,,
2.1462,response_1,shortFoil,MURAL,CINNAMON,,,,,,MARBLE,CUSTOMER,long,resources/sound/trials/audio_stim_comp65.mp3,5c5d509a05116a0001429a28,36,Female,Right handed,2021-07-26_20h43.51.653,MA Experiment 2,2021.1.2,Win32,60.05645307,2,26,94,21,1,,,,,
1.5784,response_2,,MUSCLE,ATTENDANT,,,,,,CORNER,ENGINEER,long,resources/sound/catchTrials/audio_control_human_project14.mp3,5c5d509a05116a0001429a28,36,Female,Right handed,2021-07-26_20h43.51.653,MA Experiment 2,2021.1.2,Win32,60.05645307,,,,,,0,26,26,26,1
1.1742,response_1,shortValid,ACRE,OPENING,,,,,,ROBBER,RATTLESNAKE,short,resources/sound/trials/audio_stim_human64.mp3,5c5d509a05116a0001429a28,36,Female,Right handed,2021-07-26_20h43.51.653,MA Experiment 2,2021.1.2,Win32,60.05645307,2,27,95,15,1,,,,,
1.6948,response_2,shortValid,POLO,MOLECULE,,,,,,MINER,EMERALD,long,resources/sound/trials/audio_stim_human6.mp3,5c5d509a05116a0001429a28,36,Female,Right handed,2021-07-26_20h43.51.653,MA Experiment 2,2021.1.2,Win32,60.05645307,2,28,96,30,1,,,,,
1.6476,response_2,longFoil,MURDER,GALLERY,,,,,,MINER,EMERALD,short,resources/sound/trials/audio_stim_human6.mp3,5c5d509a05116a0001429a28,36,Female,Right handed,2021-07-26_20h43.51.653,MA Experiment 2,2021.1.2,Win32,60.05645307,2,29,97,13,1,,,,,
2.012,response_2,longValid,DECOY,JANITOR,,,,,,WORKER,VISITOR,long,resources/sound/trials/audio_stim_comp17.mp3,5c5d509a05116a0001429a28,36,Female,Right handed,2021-07-26_20h43.51.653,MA Experiment 2,2021.1.2,Win32,60.05645307,2,30,98,23,1,,,,,
2.1464,response_2,,NECKLACE,MOSQUITO,,,,,,CORNER,ENGINEER,short,resources/sound/catchTrials/audio_control_human_project14.mp3,5c5d509a05116a0001429a28,36,Female,Right handed,2021-07-26_20h43.51.653,MA Experiment 2,2021.1.2,Win32,60.05645307,,,,,,0,11,11,10,1
2.0439,response_1,longFoil,BURNER,VINEGAR,,,,,,PAINTER,VEHICLE,long,resources/sound/trials/audio_stim_human47.mp3,5c5d509a05116a0001429a28,36,Female,Right handed,2021-07-26_20h43.51.653,MA Experiment 2,2021.1.2,Win32,60.05645307,2,31,99,28,1,,,,,
2.3129,response_1,longValid,CIGAR,CANDLELIGHT,,,,,,WHISTLE,TREASURER,long,resources/sound/trials/audio_stim_comp12.mp3,5c5d509a05116a0001429a28,36,Female,Right handed,2021-07-26_20h43.51.653,MA Experiment 2,2021.1.2,Win32,60.05645307,2,32,100,20,1,,,,,
1.7575,response_1,shortValid,INCOME,SETTLEMENT,,,,,,RECEIPT,LIMOUSINE,short,resources/sound/trials/audio_stim_comp40.mp3,5c5d509a05116a0001429a28,36,Female,Right handed,2021-07-26_20h43.51.653,MA Experiment 2,2021.1.2,Win32,60.05645307,2,33,101,2,1,,,,,
1.6438,response_2,shortFoil,BERRY,CIGARETTE,,,,,,DRIZZLE,CARDINAL,short,resources/sound/trials/audio_stim_comp69.mp3,5c5d509a05116a0001429a28,36,Female,Right handed,2021-07-26_20h43.51.653,MA Experiment 2,2021.1.2,Win32,60.05645307,3,0,102,0,1,,,,,
1.5373,response_1,shortValid,NEIGHBOUR,ORNAMENT,,,,,,PAINTER,VEHICLE,long,resources/sound/trials/audio_stim_human47.mp3,5c5d509a05116a0001429a28,36,Female,Right handed,2021-07-26_20h43.51.653,MA Experiment 2,2021.1.2,Win32,60.05645307,3,1,103,28,1,,,,,
2.4622,response_1,longValid,KETTLE,ADMIRAL,,,,,,DAYLIGHT,MATERIAL,long,resources/sound/trials/audio_stim_human42.mp3,5c5d509a05116a0001429a28,36,Female,Right handed,2021-07-26_20h43.51.653,MA Experiment 2,2021.1.2,Win32,60.05645307,3,2,104,26,1,,,,,
2.1625,response_2,,SOFA,FISHERMAN,,,,,,ICY,JITTERBUG,long,resources/sound/catchTrials/audio_control_comp_project08.mp3,5c5d509a05116a0001429a28,36,Female,Right handed,2021-07-26_20h43.51.653,MA Experiment 2,2021.1.2,Win32,60.05645307,,,,,,0,16,16,23,1
1.1647,response_1,longFoil,PIPING,ALCOHOL,,,,,,MARBLE,CUSTOMER,long,resources/sound/trials/audio_stim_comp65.mp3,5c5d509a05116a0001429a28,36,Female,Right handed,2021-07-26_20h43.51.653,MA Experiment 2,2021.1.2,Win32,60.05645307,3,3,105,21,1,,,,,
2.8263,response_2,longFoil,OFFICE,DESTROYER,,,,,,CONCRETE,ENEMY,short,resources/sound/trials/audio_stim_human67.mp3,5c5d509a05116a0001429a28,36,Female,Right handed,2021-07-26_20h43.51.653,MA Experiment 2,2021.1.2,Win32,60.05645307,3,4,106,10,1,,,,,
1.397,response_2,longValid,WAFER,HEROIN,,,,,,MINER,EMERALD,short,resources/sound/trials/audio_stim_human6.mp3,5c5d509a05116a0001429a28,36,Female,Right handed,2021-07-26_20h43.51.653,MA Experiment 2,2021.1.2,Win32,60.05645307,3,5,107,13,1,,,,,
2.1617,response_2,longFoil,SEGMENT,APPLIANCE,,,,,,MINER,EMERALD,short,resources/sound/trials/audio_stim_comp6.mp3,5c5d509a05116a0001429a28,36,Female,Right handed,2021-07-26_20h43.51.653,MA Experiment 2,2021.1.2,Win32,60.05645307,3,6,108,1,1,,,,,
2.127,response_2,,LIGHTNING,INDUSTRY,,,,,,IRIS,VIOLIN,long,resources/sound/catchTrials/audio_control_comp_project12.mp3,5c5d509a05116a0001429a28,36,Female,Right handed,2021-07-26_20h43.51.653,MA Experiment 2,2021.1.2,Win32,60.05645307,,,,,,0,1,1,20,1
1.9132,response_1,longFoil,PICTURE,COMMITTEE,,,,,,RECEIPT,LIMOUSINE,short,resources/sound/trials/audio_stim_comp40.mp3,5c5d509a05116a0001429a28,36,Female,Right handed,2021-07-26_20h43.51.653,MA Experiment 2,2021.1.2,Win32,60.05645307,3,7,109,2,1,,,,,
1.5783,response_1,longFoil,KERNEL,MICROSCOPE,,,,,,WHISTLE,TREASURER,short,resources/sound/trials/audio_stim_comp12.mp3,5c5d509a05116a0001429a28,36,Female,Right handed,2021-07-26_20h43.51.653,MA Experiment 2,2021.1.2,Win32,60.05645307,3,8,110,3,1,,,,,
2.7964,response_2,shortFoil,TEMPLE,HONEYMOON,,,,,,MINER,EMERALD,long,resources/sound/trials/audio_stim_comp6.mp3,5c5d509a05116a0001429a28,36,Female,Right handed,2021-07-26_20h43.51.653,MA Experiment 2,2021.1.2,Win32,60.05645307,3,9,111,18,1,,,,,
2.5485,response_2,shortValid,NAPKIN,TEMPERATURE,,,,,,ATHLETE,IVORY,short,resources/sound/trials/audio_stim_comp57.mp3,5c5d509a05116a0001429a28,36,Female,Right handed,2021-07-26_20h43.51.653,MA Experiment 2,2021.1.2,Win32,60.05645307,3,10,112,5,1,,,,,
1.7798,response_2,,LEADER,TANGERINE,,,,,,NAVY,RECTANGLE,long,resources/sound/catchTrials/audio_control_comp_project06.mp3,5c5d509a05116a0001429a28,36,Female,Right handed,2021-07-26_20h43.51.653,MA Experiment 2,2021.1.2,Win32,60.05645307,,,,,,0,14,14,22,1
1.9788,response_1,longValid,UNCLE,MINISTER,,,,,,ATHLETE,IVORY,long,resources/sound/trials/audio_stim_comp57.mp3,5c5d509a05116a0001429a28,36,Female,Right handed,2021-07-26_20h43.51.653,MA Experiment 2,2021.1.2,Win32,60.05645307,3,11,113,22,1,,,,,
0.9087,response_1,shortFoil,VAPOUR,OXYGEN,,,,,,BRAINSTORM,GREEN NEEDLE,short,resources/sound/trials/audio_stim_original.mp3,5c5d509a05116a0001429a28,36,Female,Right handed,2021-07-26_20h43.51.653,MA Experiment 2,2021.1.2,Win32,60.05645307,3,12,114,16,1,,,,,
2.0611,response_1,shortFoil,BISHOP,FAMILY,,,,,,DAYLIGHT,MATERIAL,short,resources/sound/trials/audio_stim_human42.mp3,5c5d509a05116a0001429a28,36,Female,Right handed,2021-07-26_20h43.51.653,MA Experiment 2,2021.1.2,Win32,60.05645307,3,13,115,9,1,,,,,
1.9119,response_2,longFoil,DUEL,INSTRUCTOR,,,,,,MARBLE,CUSTOMER,short,resources/sound/trials/audio_stim_comp65.mp3,5c5d509a05116a0001429a28,36,Female,Right handed,2021-07-26_20h43.51.653,MA Experiment 2,2021.1.2,Win32,60.05645307,3,14,116,4,1,,,,,
1.4944,response_2,,WIRE,DIAMOND,,,,,,HOBBY,COLONY,long,resources/sound/catchTrials/audio_control_human_project04.mp3,5c5d509a05116a0001429a28,36,Female,Right handed,2021-07-26_20h43.51.653,MA Experiment 2,2021.1.2,Win32,60.05645307,,,,,,0,5,5,27,1
1.3619,response_2,longFoil,KENNEL,HOSPITAL,,,,,,WORKER,VISITOR,long,resources/sound/trials/audio_stim_comp17.mp3,5c5d509a05116a0001429a28,36,Female,Right handed,2021-07-26_20h43.51.653,MA Experiment 2,2021.1.2,Win32,60.05645307,3,15,117,23,1,,,,,
1.1143,response_2,shortValid,CURFEW,CORRIDOR,,,,,,DRIZZLE,CARDINAL,long,resources/sound/trials/audio_stim_comp69.mp3,5c5d509a05116a0001429a28,36,Female,Right handed,2021-07-26_20h43.51.653,MA Experiment 2,2021.1.2,Win32,60.05645307,3,16,118,17,1,,,,,
2.4122,response_1,shortFoil,STOCKING,INJURY,,,,,,WHISTLE,TREASURER,long,resources/sound/trials/audio_stim_comp12.mp3,5c5d509a05116a0001429a28,36,Female,Right handed,2021-07-26_20h43.51.653,MA Experiment 2,2021.1.2,Win32,60.05645307,3,17,119,20,1,,,,,
2.322,response_1,shortValid,DIAL,PROFESSOR,,,,,,SACRED,GALAXY,long,resources/sound/trials/audio_stim_comp1.mp3,5c5d509a05116a0001429a28,36,Female,Right handed,2021-07-26_20h43.51.653,MA Experiment 2,2021.1.2,Win32,60.05645307,3,18,120,24,1,,,,,
1.1305,response_2,,LOBSTER,GYMNASTICS,,,,,,IRIS,VIOLIN,short,resources/sound/catchTrials/audio_control_human_project12.mp3,5c5d509a05116a0001429a28,36,Female,Right handed,2021-07-26_20h43.51.653,MA Experiment 2,2021.1.2,Win32,60.05645307,,,,,,0,29,29,8,1
2.7464,response_2,longFoil,SINGER,ATHLETICS,,,,,,PAINTER,VEHICLE,short,resources/sound/trials/audio_stim_human47.mp3,5c5d509a05116a0001429a28,36,Female,Right handed,2021-07-26_20h43.51.653,MA Experiment 2,2021.1.2,Win32,60.05645307,3,19,121,11,1,,,,,
1.6277,response_2,shortValid,MOONLIGHT,SPECIALIST,,,,,,CONCRETE,ENEMY,long,resources/sound/trials/audio_stim_human67.mp3,5c5d509a05116a0001429a28,36,Female,Right handed,2021-07-26_20h43.51.653,MA Experiment 2,2021.1.2,Win32,60.05645307,3,20,122,27,1,,,,,
2.0789,response_1,longValid,WALRUS,NEIGHBOURHOOD,,,,,,RECEIPT,LIMOUSINE,long,resources/sound/trials/audio_stim_comp40.mp3,5c5d509a05116a0001429a28,36,Female,Right handed,2021-07-26_20h43.51.653,MA Experiment 2,2021.1.2,Win32,60.05645307,3,21,123,19,1,,,,,
1.2622,response_1,shortValid,EVENING,UMBRELLA,,,,,,HARDWARE,OVERCOAT,long,resources/sound/trials/audio_stim_human35.mp3,5c5d509a05116a0001429a28,36,Female,Right handed,2021-07-26_20h43.51.653,MA Experiment 2,2021.1.2,Win32,60.05645307,3,22,124,25,1,,,,,
1.3611,response_1,,EARTHWORM,MEDICINE,,,,,,VIOLET,LUBRICANT,long,resources/sound/catchTrials/audio_control_comp_project07.mp3,5c5d509a05116a0001429a28,36,Female,Right handed,2021-07-26_20h43.51.653,MA Experiment 2,2021.1.2,Win32,60.05645307,,,,,,0,12,12,19,1
2.7803,response_1,shortFoil,FATHER,ENVELOPE,,,,,,BRAINSTORM,GREEN NEEDLE,long,resources/sound/trials/audio_stim_original.mp3,5c5d509a05116a0001429a28,36,Female,Right handed,2021-07-26_20h43.51.653,MA Experiment 2,2021.1.2,Win32,60.05645307,3,23,125,33,1,,,,,
2.0279,response_1,longValid,WINDOW,MECHANIC,,,,,,RUBBER,PROPERTY,short,resources/sound/trials/audio_stim_human0.mp3,5c5d509a05116a0001429a28,36,Female,Right handed,2021-07-26_20h43.51.653,MA Experiment 2,2021.1.2,Win32,60.05645307,3,24,126,12,1,,,,,
2.2622,response_2,longValid,STATION,SAXOPHONE,,,,,,HARDWARE,OVERCOAT,short,resources/sound/trials/audio_stim_human35.mp3,5c5d509a05116a0001429a28,36,Female,Right handed,2021-07-26_20h43.51.653,MA Experiment 2,2021.1.2,Win32,60.05645307,3,25,127,8,1,,,,,
1.3955,response_1,shortValid,PIANO,NEWSPAPER,,,,,,RUBBER,PROPERTY,long,resources/sound/trials/audio_stim_human0.mp3,5c5d509a05116a0001429a28,36,Female,Right handed,2021-07-26_20h43.51.653,MA Experiment 2,2021.1.2,Win32,60.05645307,3,26,128,29,1,,,,,
1.1786,response_2,,BEETLE,ANTIQUE,,,,,,ICY,JITTERBUG,short,resources/sound/catchTrials/audio_control_comp_project08.mp3,5c5d509a05116a0001429a28,36,Female,Right handed,2021-07-26_20h43.51.653,MA Experiment 2,2021.1.2,Win32,60.05645307,,,,,,0,21,21,7,1
2.1291,response_2,shortValid,SHEEPSKIN,PHOTOGRAPH,,,,,,WORKER,VISITOR,short,resources/sound/trials/audio_stim_comp17.mp3,5c5d509a05116a0001429a28,36,Female,Right handed,2021-07-26_20h43.51.653,MA Experiment 2,2021.1.2,Win32,60.05645307,3,27,129,6,1,,,,,
2.1606,response_1,longFoil,OLIVE,CHOCOLATE,,,,,,ROBBER,RATTLESNAKE,short,resources/sound/trials/audio_stim_human64.mp3,5c5d509a05116a0001429a28,36,Female,Right handed,2021-07-26_20h43.51.653,MA Experiment 2,2021.1.2,Win32,60.05645307,3,28,130,15,1,,,,,
2.4456,response_2,longValid,ANCHOR,INSTITUTE,,,,,,PARTY,SANCTUARY,short,resources/sound/trials/audio_stim_human50.mp3,5c5d509a05116a0001429a28,36,Female,Right handed,2021-07-26_20h43.51.653,MA Experiment 2,2021.1.2,Win32,60.05645307,3,29,131,14,1,,,,,
1.8643,response_2,longFoil,FAIRY,BEVERAGE,,,,,,MINER,EMERALD,long,resources/sound/trials/audio_stim_human6.mp3,5c5d509a05116a0001429a28,36,Female,Right handed,2021-07-26_20h43.51.653,MA Experiment 2,2021.1.2,Win32,60.05645307,3,30,132,30,1,,,,,
1.5993,response_2,,SHOULDER,ENAMEL,,,,,,SPINACH,APRICOT,long,resources/sound/catchTrials/audio_control_comp_project18.mp3,5c5d509a05116a0001429a28,36,Female,Right handed,2021-07-26_20h43.51.653,MA Experiment 2,2021.1.2,Win32,60.05645307,,,,,,0,17,17,21,1
1.5781,response_2,shortValid,MEDICINE,AVENUE,,,,,,PARTY,SANCTUARY,long,resources/sound/trials/audio_stim_human50.mp3,5c5d509a05116a0001429a28,36,Female,Right handed,2021-07-26_20h43.51.653,MA Experiment 2,2021.1.2,Win32,60.05645307,3,31,133,31,1,,,,,
2.1956,response_1,longFoil,INVOICE,INSTRUMENT,,,,,,ROBBER,RATTLESNAKE,long,resources/sound/trials/audio_stim_human64.mp3,5c5d509a05116a0001429a28,36,Female,Right handed,2021-07-26_20h43.51.653,MA Experiment 2,2021.1.2,Win32,60.05645307,3,32,134,32,1,,,,,
2.7282,response_2,shortFoil,DANCER,GOVERNMENT,,,,,,SACRED,GALAXY,short,resources/sound/trials/audio_stim_comp1.mp3,5c5d509a05116a0001429a28,36,Female,Right handed,2021-07-26_20h43.51.653,MA Experiment 2,2021.1.2,Win32,60.05645307,3,33,135,7,1,,,,,
