response.time,response,cueTarget,rand_foil_1,rand_foil_2,prac_trials.thisRepN,prac_trials.thisTrialN,prac_trials.thisN,prac_trials.thisIndex,prac_trials.ran,word_1,word_2,cue,file_path,participant,age,gender,handedness,date,expName,psychopyVersion,OS,frameRate,trials.thisRepN,trials.thisTrialN,trials.thisN,trials.thisIndex,trials.ran,catchTrials.thisRepN,catchTrials.thisTrialN,catchTrials.thisN,catchTrials.thisIndex,catchTrials.ran
,,shortValid,SULPHUR,GORILLA,0,0,0,0,1,AARDVARK,FALLACY,short,resources/sound/prac_trials/practice_cue0.mp3,5cc076320004360001ed90dc,44,Female,Right handed,2021-07-26_21h08.36.098,MA Experiment 2,2021.1.2,Linux x86_64,60.01680471,,,,,,,,,,
2.23929,response_2,shortValid,RUSTY,INTERVIEW,0,1,1,4,1,FIZZY,ELECTRIC,short,resources/sound/prac_trials/practice_cue4.mp3,5cc076320004360001ed90dc,44,Female,Right handed,2021-07-26_21h08.36.098,MA Experiment 2,2021.1.2,Linux x86_64,60.01680471,,,,,,,,,,
3.1873,response_2,longFoil,WALRUS,ALCOHOL,0,2,2,8,1,DAGGER,EMPHASIS,long,resources/sound/prac_trials/practice_cue8.mp3,5cc076320004360001ed90dc,44,Female,Right handed,2021-07-26_21h08.36.098,MA Experiment 2,2021.1.2,Linux x86_64,60.01680471,,,,,,,,,,
,,longValid,OLIVE,GINGERBREAD,0,3,3,5,1,NONSENSE,OASIS,short,resources/sound/prac_trials/practice_cue_human5.mp3,5cc076320004360001ed90dc,44,Female,Right handed,2021-07-26_21h08.36.098,MA Experiment 2,2021.1.2,Linux x86_64,60.01680471,,,,,,,,,,
3.375745,response_1,shortFoil,CAPTAIN,ACROBAT,0,4,4,10,1,SAFFRON,JAVELIN,long,resources/sound/prac_trials/practice_cue10.mp3,5cc076320004360001ed90dc,44,Female,Right handed,2021-07-26_21h08.36.098,MA Experiment 2,2021.1.2,Linux x86_64,60.01680471,,,,,,,,,,
,,shortFoil,PRINCESS,DISSECTION,0,5,5,7,1,BUCKLE,WALLABY,long,resources/sound/prac_trials/practice_cue_human7.mp3,5cc076320004360001ed90dc,44,Female,Right handed,2021-07-26_21h08.36.098,MA Experiment 2,2021.1.2,Linux x86_64,60.01680471,,,,,,,,,,
,,longValid,TRAITOR,MICROSCOPE,0,6,6,9,1,GRUMPY,LABYRINTH,long,resources/sound/prac_trials/practice_cue_human9.mp3,5cc076320004360001ed90dc,44,Female,Right handed,2021-07-26_21h08.36.098,MA Experiment 2,2021.1.2,Linux x86_64,60.01680471,,,,,,,,,,
,,shortFoil,EVENING,GRASSHOPPER,0,7,7,11,1,KETCHUP,GONDOLA,long,resources/sound/prac_trials/practice_cue_human11.mp3,5cc076320004360001ed90dc,44,Female,Right handed,2021-07-26_21h08.36.098,MA Experiment 2,2021.1.2,Linux x86_64,60.01680471,,,,,,,,,,
,,longValid,BISHOP,CATHEDRAL,0,8,8,3,1,EAGER,QUALIFY,short,resources/sound/prac_trials/practice_cue_human3.mp3,5cc076320004360001ed90dc,44,Female,Right handed,2021-07-26_21h08.36.098,MA Experiment 2,2021.1.2,Linux x86_64,60.01680471,,,,,,,,,,
,,longValid,SEGMENT,AMBULANCE,0,9,9,2,1,RECENT,TOBACCO,short,resources/sound/prac_trials/practice_cue2.mp3,5cc076320004360001ed90dc,44,Female,Right handed,2021-07-26_21h08.36.098,MA Experiment 2,2021.1.2,Linux x86_64,60.01680471,,,,,,,,,,
,,longFoil,POLO,OPENING,0,10,10,1,1,CABLE,REPUBLIC,short,resources/sound/prac_trials/practice_cue_human1.mp3,5cc076320004360001ed90dc,44,Female,Right handed,2021-07-26_21h08.36.098,MA Experiment 2,2021.1.2,Linux x86_64,60.01680471,,,,,,,,,,
,,shortValid,FEVER,INJURY,0,11,11,6,1,VACANT,SALVATION,long,resources/sound/prac_trials/practice_cue6.mp3,5cc076320004360001ed90dc,44,Female,Right handed,2021-07-26_21h08.36.098,MA Experiment 2,2021.1.2,Linux x86_64,60.01680471,,,,,,,,,,
2.00503,response_1,shortFoil,NOVEL,HONEYMOON,,,,,,MINER,EMERALD,short,resources/sound/trials/audio_stim_human6.mp3,5cc076320004360001ed90dc,44,Female,Right handed,2021-07-26_21h08.36.098,MA Experiment 2,2021.1.2,Linux x86_64,60.01680471,0,0,0,13,1,,,,,
1.527295,response_2,longValid,CEREAL,HURRICANE,,,,,,RUBBER,PROPERTY,short,resources/sound/trials/audio_stim_human0.mp3,5cc076320004360001ed90dc,44,Female,Right handed,2021-07-26_21h08.36.098,MA Experiment 2,2021.1.2,Linux x86_64,60.01680471,0,1,1,12,1,,,,,
1.957675,response_1,longFoil,LIGHTNING,CINNAMON,,,,,,MINER,EMERALD,long,resources/sound/trials/audio_stim_comp6.mp3,5cc076320004360001ed90dc,44,Female,Right handed,2021-07-26_21h08.36.098,MA Experiment 2,2021.1.2,Linux x86_64,60.01680471,0,2,2,18,1,,,,,
1.33883,response_1,,MEDICINE,ALPHABET,,,,,,POISON,REVOLVER,long,resources/sound/catchTrials/audio_control_human_project01.mp3,5cc076320004360001ed90dc,44,Female,Right handed,2021-07-26_21h08.36.098,MA Experiment 2,2021.1.2,Linux x86_64,60.01680471,,,,,,0,10,10,25,1
1.20485,response_2,longFoil,CRYSTAL,LEMONADE,,,,,,WORKER,VISITOR,long,resources/sound/trials/audio_stim_comp17.mp3,5cc076320004360001ed90dc,44,Female,Right handed,2021-07-26_21h08.36.098,MA Experiment 2,2021.1.2,Linux x86_64,60.01680471,0,3,3,23,1,,,,,
2.0424,response_1,longValid,KENNEL,VINEGAR,,,,,,PAINTER,VEHICLE,short,resources/sound/trials/audio_stim_human47.mp3,5cc076320004360001ed90dc,44,Female,Right handed,2021-07-26_21h08.36.098,MA Experiment 2,2021.1.2,Linux x86_64,60.01680471,0,4,4,11,1,,,,,
1.58699,response_2,longFoil,WINDOW,SETTLEMENT,,,,,,CONCRETE,ENEMY,short,resources/sound/trials/audio_stim_human67.mp3,5cc076320004360001ed90dc,44,Female,Right handed,2021-07-26_21h08.36.098,MA Experiment 2,2021.1.2,Linux x86_64,60.01680471,0,5,5,10,1,,,,,
1.722965,response_2,longFoil,UNCLE,ORNAMENT,,,,,,DAYLIGHT,MATERIAL,long,resources/sound/trials/audio_stim_human42.mp3,5cc076320004360001ed90dc,44,Female,Right handed,2021-07-26_21h08.36.098,MA Experiment 2,2021.1.2,Linux x86_64,60.01680471,0,6,6,26,1,,,,,
1.437485,response_2,,OFFICE,PHOTOGRAPH,,,,,,CORNER,ENGINEER,long,resources/sound/catchTrials/audio_control_comp_project14.mp3,5cc076320004360001ed90dc,44,Female,Right handed,2021-07-26_21h08.36.098,MA Experiment 2,2021.1.2,Linux x86_64,60.01680471,,,,,,0,26,26,17,1
1.2381,response_2,longValid,FOREARM,INSTRUCTOR,,,,,,WORKER,VISITOR,short,resources/sound/trials/audio_stim_comp17.mp3,5cc076320004360001ed90dc,44,Female,Right handed,2021-07-26_21h08.36.098,MA Experiment 2,2021.1.2,Linux x86_64,60.01680471,0,7,7,6,1,,,,,
1.754905,response_1,shortFoil,DUEL,AMMONIA,,,,,,WHISTLE,TREASURER,long,resources/sound/trials/audio_stim_comp12.mp3,5cc076320004360001ed90dc,44,Female,Right handed,2021-07-26_21h08.36.098,MA Experiment 2,2021.1.2,Linux x86_64,60.01680471,0,8,8,20,1,,,,,
1.57219,response_1,longFoil,DIVING,CAPITAL,,,,,,MINER,EMERALD,long,resources/sound/trials/audio_stim_human6.mp3,5cc076320004360001ed90dc,44,Female,Right handed,2021-07-26_21h08.36.098,MA Experiment 2,2021.1.2,Linux x86_64,60.01680471,0,9,9,30,1,,,,,
2.0911,response_1,longValid,TWEEZER,ENVELOPE,,,,,,SACRED,GALAXY,long,resources/sound/trials/audio_stim_comp1.mp3,5cc076320004360001ed90dc,44,Female,Right handed,2021-07-26_21h08.36.098,MA Experiment 2,2021.1.2,Linux x86_64,60.01680471,0,10,10,24,1,,,,,
1.373035,response_2,,NURSERY,ABDOMEN,,,,,,NAVY,RECTANGLE,long,resources/sound/catchTrials/audio_control_comp_project06.mp3,5cc076320004360001ed90dc,44,Female,Right handed,2021-07-26_21h08.36.098,MA Experiment 2,2021.1.2,Linux x86_64,60.01680471,,,,,,0,25,25,22,1
1.20636,response_1,shortFoil,CANTEEN,CROCODILE,,,,,,DRIZZLE,CARDINAL,long,resources/sound/trials/audio_stim_comp69.mp3,5cc076320004360001ed90dc,44,Female,Right handed,2021-07-26_21h08.36.098,MA Experiment 2,2021.1.2,Linux x86_64,60.01680471,0,11,11,17,1,,,,,
1.42441,response_2,longValid,NEIGHBOUR,MESSENGER,,,,,,MARBLE,CUSTOMER,long,resources/sound/trials/audio_stim_comp65.mp3,5cc076320004360001ed90dc,44,Female,Right handed,2021-07-26_21h08.36.098,MA Experiment 2,2021.1.2,Linux x86_64,60.01680471,0,12,12,21,1,,,,,
3.42135,response_2,shortFoil,ACRE,COMMITTEE,,,,,,BRAINSTORM,GREEN NEEDLE,long,resources/sound/trials/audio_stim_original.mp3,5cc076320004360001ed90dc,44,Female,Right handed,2021-07-26_21h08.36.098,MA Experiment 2,2021.1.2,Linux x86_64,60.01680471,0,13,13,33,1,,,,,
1.338415,response_2,longValid,HAMMER,REFEREE,,,,,,DAYLIGHT,MATERIAL,short,resources/sound/trials/audio_stim_human42.mp3,5cc076320004360001ed90dc,44,Female,Right handed,2021-07-26_21h08.36.098,MA Experiment 2,2021.1.2,Linux x86_64,60.01680471,0,14,14,9,1,,,,,
0.95385,response_1,,NAPKIN,PROJECTOR,,,,,,VIOLET,LUBRICANT,short,resources/sound/catchTrials/audio_control_human_project07.mp3,5cc076320004360001ed90dc,44,Female,Right handed,2021-07-26_21h08.36.098,MA Experiment 2,2021.1.2,Linux x86_64,60.01680471,,,,,,0,5,5,12,1
2.121345,response_2,longFoil,ANCHOR,LECTURER,,,,,,PARTY,SANCTUARY,long,resources/sound/trials/audio_stim_human50.mp3,5cc076320004360001ed90dc,44,Female,Right handed,2021-07-26_21h08.36.098,MA Experiment 2,2021.1.2,Linux x86_64,60.01680471,0,15,15,31,1,,,,,
1.672645,response_1,longFoil,VILLAGE,ATHLETICS,,,,,,WHISTLE,TREASURER,short,resources/sound/trials/audio_stim_comp12.mp3,5cc076320004360001ed90dc,44,Female,Right handed,2021-07-26_21h08.36.098,MA Experiment 2,2021.1.2,Linux x86_64,60.01680471,0,16,16,3,1,,,,,
1.340265,response_1,longFoil,WAFER,CLARINET,,,,,,HARDWARE,OVERCOAT,short,resources/sound/trials/audio_stim_human35.mp3,5cc076320004360001ed90dc,44,Female,Right handed,2021-07-26_21h08.36.098,MA Experiment 2,2021.1.2,Linux x86_64,60.01680471,0,17,17,8,1,,,,,
1.24087,response_2,shortFoil,CHIPMUNK,STRAWBERRY,,,,,,SACRED,GALAXY,short,resources/sound/trials/audio_stim_comp1.mp3,5cc076320004360001ed90dc,44,Female,Right handed,2021-07-26_21h08.36.098,MA Experiment 2,2021.1.2,Linux x86_64,60.01680471,0,18,18,7,1,,,,,
1.17279,response_1,,SHEEPSKIN,INDUSTRY,,,,,,VIOLET,LUBRICANT,short,resources/sound/catchTrials/audio_control_comp_project07.mp3,5cc076320004360001ed90dc,44,Female,Right handed,2021-07-26_21h08.36.098,MA Experiment 2,2021.1.2,Linux x86_64,60.01680471,,,,,,0,24,24,3,1
1.20357,response_2,longValid,HARBOUR,GOVERNMENT,,,,,,RUBBER,PROPERTY,long,resources/sound/trials/audio_stim_human0.mp3,5cc076320004360001ed90dc,44,Female,Right handed,2021-07-26_21h08.36.098,MA Experiment 2,2021.1.2,Linux x86_64,60.01680471,0,19,19,29,1,,,,,
1.288875,response_2,longFoil,KETTLE,MECHANIC,,,,,,ROBBER,RATTLESNAKE,short,resources/sound/trials/audio_stim_human64.mp3,5cc076320004360001ed90dc,44,Female,Right handed,2021-07-26_21h08.36.098,MA Experiment 2,2021.1.2,Linux x86_64,60.01680471,0,20,20,15,1,,,,,
2.77277,response_1,longFoil,HURDLE,MOSQUITO,,,,,,CONCRETE,ENEMY,long,resources/sound/trials/audio_stim_human67.mp3,5cc076320004360001ed90dc,44,Female,Right handed,2021-07-26_21h08.36.098,MA Experiment 2,2021.1.2,Linux x86_64,60.01680471,0,21,21,27,1,,,,,
1.10634,response_1,longValid,NECKLACE,MINISTER,,,,,,HARDWARE,OVERCOAT,long,resources/sound/trials/audio_stim_human35.mp3,5cc076320004360001ed90dc,44,Female,Right handed,2021-07-26_21h08.36.098,MA Experiment 2,2021.1.2,Linux x86_64,60.01680471,0,22,22,25,1,,,,,
1.424245,response_1,,NATIVE,ASBESTOS,,,,,,VIOLET,LUBRICANT,long,resources/sound/catchTrials/audio_control_comp_project07.mp3,5cc076320004360001ed90dc,44,Female,Right handed,2021-07-26_21h08.36.098,MA Experiment 2,2021.1.2,Linux x86_64,60.01680471,,,,,,0,31,31,19,1
1.559435,response_2,shortFoil,GIRDLE,EMULSION,,,,,,MARBLE,CUSTOMER,short,resources/sound/trials/audio_stim_comp65.mp3,5cc076320004360001ed90dc,44,Female,Right handed,2021-07-26_21h08.36.098,MA Experiment 2,2021.1.2,Linux x86_64,60.01680471,0,23,23,4,1,,,,,
2.072235,response_2,shortFoil,STATION,MERCURY,,,,,,PAINTER,VEHICLE,long,resources/sound/trials/audio_stim_human47.mp3,5cc076320004360001ed90dc,44,Female,Right handed,2021-07-26_21h08.36.098,MA Experiment 2,2021.1.2,Linux x86_64,60.01680471,0,24,24,28,1,,,,,
1.10699,response_2,shortValid,TEMPLE,SPECIALIST,,,,,,ROBBER,RATTLESNAKE,long,resources/sound/trials/audio_stim_human64.mp3,5cc076320004360001ed90dc,44,Female,Right handed,2021-07-26_21h08.36.098,MA Experiment 2,2021.1.2,Linux x86_64,60.01680471,0,25,25,32,1,,,,,
1.357385,response_2,longValid,VALLEY,CABINET,,,,,,MINER,EMERALD,short,resources/sound/trials/audio_stim_comp6.mp3,5cc076320004360001ed90dc,44,Female,Right handed,2021-07-26_21h08.36.098,MA Experiment 2,2021.1.2,Linux x86_64,60.01680471,0,26,26,1,1,,,,,
1.1397,response_2,,BUTTER,FURNITURE,,,,,,HOBBY,COLONY,long,resources/sound/catchTrials/audio_control_comp_project04.mp3,5cc076320004360001ed90dc,44,Female,Right handed,2021-07-26_21h08.36.098,MA Experiment 2,2021.1.2,Linux x86_64,60.01680471,,,,,,0,6,6,18,1
2.304575,response_2,shortFoil,MORNING,NEWSPAPER,,,,,,RECEIPT,LIMOUSINE,short,resources/sound/trials/audio_stim_comp40.mp3,5cc076320004360001ed90dc,44,Female,Right handed,2021-07-26_21h08.36.098,MA Experiment 2,2021.1.2,Linux x86_64,60.01680471,0,27,27,2,1,,,,,
1.423215,response_2,longValid,MEASLES,PROPELLER,,,,,,ATHLETE,IVORY,long,resources/sound/trials/audio_stim_comp57.mp3,5cc076320004360001ed90dc,44,Female,Right handed,2021-07-26_21h08.36.098,MA Experiment 2,2021.1.2,Linux x86_64,60.01680471,0,28,28,22,1,,,,,
2.98947,response_1,shortFoil,CIGAR,AVENUE,,,,,,RECEIPT,LIMOUSINE,long,resources/sound/trials/audio_stim_comp40.mp3,5cc076320004360001ed90dc,44,Female,Right handed,2021-07-26_21h08.36.098,MA Experiment 2,2021.1.2,Linux x86_64,60.01680471,0,29,29,19,1,,,,,
1.20685,response_1,shortValid,SOFA,ENAMEL,,,,,,DRIZZLE,CARDINAL,short,resources/sound/trials/audio_stim_comp69.mp3,5cc076320004360001ed90dc,44,Female,Right handed,2021-07-26_21h08.36.098,MA Experiment 2,2021.1.2,Linux x86_64,60.01680471,0,30,30,0,1,,,,,
1.0212,response_2,,PATIENT,ICICLE,,,,,,IRIS,VIOLIN,short,resources/sound/catchTrials/audio_control_comp_project12.mp3,5cc076320004360001ed90dc,44,Female,Right handed,2021-07-26_21h08.36.098,MA Experiment 2,2021.1.2,Linux x86_64,60.01680471,,,,,,0,1,1,4,1
2.40455,response_2,shortValid,TORTURE,FAMILY,,,,,,BRAINSTORM,GREEN NEEDLE,short,resources/sound/trials/audio_stim_original.mp3,5cc076320004360001ed90dc,44,Female,Right handed,2021-07-26_21h08.36.098,MA Experiment 2,2021.1.2,Linux x86_64,60.01680471,0,31,31,16,1,,,,,
1.355805,response_2,longFoil,DOORWAY,RETAILER,,,,,,PARTY,SANCTUARY,short,resources/sound/trials/audio_stim_human50.mp3,5cc076320004360001ed90dc,44,Female,Right handed,2021-07-26_21h08.36.098,MA Experiment 2,2021.1.2,Linux x86_64,60.01680471,0,32,32,14,1,,,,,
2.806245,response_2,longFoil,MUSCLE,CORRIDOR,,,,,,ATHLETE,IVORY,short,resources/sound/trials/audio_stim_comp57.mp3,5cc076320004360001ed90dc,44,Female,Right handed,2021-07-26_21h08.36.098,MA Experiment 2,2021.1.2,Linux x86_64,60.01680471,0,33,33,5,1,,,,,
1.18557,response_2,longValid,BURNER,ADMIRAL,,,,,,BRAINSTORM,GREEN NEEDLE,long,resources/sound/trials/audio_stim_original.mp3,5cc076320004360001ed90dc,44,Female,Right handed,2021-07-26_21h08.36.098,MA Experiment 2,2021.1.2,Linux x86_64,60.01680471,1,0,34,33,1,,,,,
2.686245,response_1,shortFoil,DIAL,MINERAL,,,,,,PAINTER,VEHICLE,short,resources/sound/trials/audio_stim_human47.mp3,5cc076320004360001ed90dc,44,Female,Right handed,2021-07-26_21h08.36.098,MA Experiment 2,2021.1.2,Linux x86_64,60.01680471,1,1,35,11,1,,,,,
1.0049,response_2,shortFoil,INCOME,HEADQUARTERS,,,,,,PARTY,SANCTUARY,long,resources/sound/trials/audio_stim_human50.mp3,5cc076320004360001ed90dc,44,Female,Right handed,2021-07-26_21h08.36.098,MA Experiment 2,2021.1.2,Linux x86_64,60.01680471,1,2,36,31,1,,,,,
0.80388,response_2,,SODA,GALLERY,,,,,,IRIS,VIOLIN,long,resources/sound/catchTrials/audio_control_comp_project12.mp3,5cc076320004360001ed90dc,44,Female,Right handed,2021-07-26_21h08.36.098,MA Experiment 2,2021.1.2,Linux x86_64,60.01680471,,,,,,0,17,17,20,1
1.58959,response_1,shortFoil,PERSON,DIAMOND,,,,,,CONCRETE,ENEMY,long,resources/sound/trials/audio_stim_human67.mp3,5cc076320004360001ed90dc,44,Female,Right handed,2021-07-26_21h08.36.098,MA Experiment 2,2021.1.2,Linux x86_64,60.01680471,1,3,37,27,1,,,,,
1.138995,response_1,longFoil,LOBSTER,INFECTION,,,,,,HARDWARE,OVERCOAT,long,resources/sound/trials/audio_stim_human35.mp3,5cc076320004360001ed90dc,44,Female,Right handed,2021-07-26_21h08.36.098,MA Experiment 2,2021.1.2,Linux x86_64,60.01680471,1,4,38,25,1,,,,,
1.15522,response_2,longFoil,BEETLE,BUTTERFLY,,,,,,SACRED,GALAXY,long,resources/sound/trials/audio_stim_comp1.mp3,5cc076320004360001ed90dc,44,Female,Right handed,2021-07-26_21h08.36.098,MA Experiment 2,2021.1.2,Linux x86_64,60.01680471,1,5,39,24,1,,,,,
2.271455,response_2,shortValid,HAMSTER,BEVERAGE,,,,,,DAYLIGHT,MATERIAL,long,resources/sound/trials/audio_stim_human42.mp3,5cc076320004360001ed90dc,44,Female,Right handed,2021-07-26_21h08.36.098,MA Experiment 2,2021.1.2,Linux x86_64,60.01680471,1,6,40,26,1,,,,,
,,,FATHER,FISHERMAN,,,,,,BORDER,ALGEBRA,long,resources/sound/catchTrials/audio_control_comp_project00.mp3,5cc076320004360001ed90dc,44,Female,Right handed,2021-07-26_21h08.36.098,MA Experiment 2,2021.1.2,Linux x86_64,60.01680471,,,,,,0,14,14,16,1
1.456745,response_1,shortValid,DECOY,POLIO,,,,,,ATHLETE,IVORY,short,resources/sound/trials/audio_stim_comp57.mp3,5cc076320004360001ed90dc,44,Female,Right handed,2021-07-26_21h08.36.098,MA Experiment 2,2021.1.2,Linux x86_64,60.01680471,1,7,41,5,1,,,,,
0.89469,response_1,shortValid,MOONLIGHT,JANITOR,,,,,,ATHLETE,IVORY,long,resources/sound/trials/audio_stim_comp57.mp3,5cc076320004360001ed90dc,44,Female,Right handed,2021-07-26_21h08.36.098,MA Experiment 2,2021.1.2,Linux x86_64,60.01680471,1,8,42,22,1,,,,,
1.79052,response_1,shortFoil,FERTILE,SAXOPHONE,,,,,,MINER,EMERALD,long,resources/sound/trials/audio_stim_human6.mp3,5cc076320004360001ed90dc,44,Female,Right handed,2021-07-26_21h08.36.098,MA Experiment 2,2021.1.2,Linux x86_64,60.01680471,1,9,43,30,1,,,,,
0.693765,response_2,shortValid,GRADUATE,FACTORY,,,,,,MINER,EMERALD,short,resources/sound/trials/audio_stim_human6.mp3,5cc076320004360001ed90dc,44,Female,Right handed,2021-07-26_21h08.36.098,MA Experiment 2,2021.1.2,Linux x86_64,60.01680471,1,10,44,13,1,,,,,
0.80244,response_2,,DWELLER,HOSPITAL,,,,,,ICY,JITTERBUG,long,resources/sound/catchTrials/audio_control_comp_project08.mp3,5cc076320004360001ed90dc,44,Female,Right handed,2021-07-26_21h08.36.098,MA Experiment 2,2021.1.2,Linux x86_64,60.01680471,,,,,,0,18,18,23,1
1.989505,response_2,longValid,EARTHWORM,POLICEMAN,,,,,,WHISTLE,TREASURER,long,resources/sound/trials/audio_stim_comp12.mp3,5cc076320004360001ed90dc,44,Female,Right handed,2021-07-26_21h08.36.098,MA Experiment 2,2021.1.2,Linux x86_64,60.01680471,1,11,45,20,1,,,,,
1.934815,response_2,longFoil,SCOOTER,DESTROYER,,,,,,ROBBER,RATTLESNAKE,long,resources/sound/trials/audio_stim_human64.mp3,5cc076320004360001ed90dc,44,Female,Right handed,2021-07-26_21h08.36.098,MA Experiment 2,2021.1.2,Linux x86_64,60.01680471,1,12,46,32,1,,,,,
1.004825,response_2,shortFoil,JURY,CAMERA,,,,,,WORKER,VISITOR,long,resources/sound/trials/audio_stim_comp17.mp3,5cc076320004360001ed90dc,44,Female,Right handed,2021-07-26_21h08.36.098,MA Experiment 2,2021.1.2,Linux x86_64,60.01680471,1,13,47,23,1,,,,,
1.84087,response_1,shortFoil,MURDER,MOLECULE,,,,,,MINER,EMERALD,long,resources/sound/trials/audio_stim_comp6.mp3,5cc076320004360001ed90dc,44,Female,Right handed,2021-07-26_21h08.36.098,MA Experiment 2,2021.1.2,Linux x86_64,60.01680471,1,14,48,18,1,,,,,
0.86151,response_2,,KERNEL,PHYSICIAN,,,,,,BORDER,ALGEBRA,short,resources/sound/catchTrials/audio_control_comp_project00.mp3,5cc076320004360001ed90dc,44,Female,Right handed,2021-07-26_21h08.36.098,MA Experiment 2,2021.1.2,Linux x86_64,60.01680471,,,,,,0,22,22,0,1
0.755915,response_2,shortFoil,PODIUM,POTATO,,,,,,MARBLE,CUSTOMER,long,resources/sound/trials/audio_stim_comp65.mp3,5cc076320004360001ed90dc,44,Female,Right handed,2021-07-26_21h08.36.098,MA Experiment 2,2021.1.2,Linux x86_64,60.01680471,1,15,49,21,1,,,,,
2.90416,response_2,shortValid,CABIN,MONUMENT,,,,,,RECEIPT,LIMOUSINE,short,resources/sound/trials/audio_stim_comp40.mp3,5cc076320004360001ed90dc,44,Female,Right handed,2021-07-26_21h08.36.098,MA Experiment 2,2021.1.2,Linux x86_64,60.01680471,1,16,50,2,1,,,,,
0.941305,response_2,longFoil,WIRE,INSTITUTE,,,,,,RUBBER,PROPERTY,long,resources/sound/trials/audio_stim_human0.mp3,5cc076320004360001ed90dc,44,Female,Right handed,2021-07-26_21h08.36.098,MA Experiment 2,2021.1.2,Linux x86_64,60.01680471,1,17,51,29,1,,,,,
1.25589,response_2,shortFoil,BERRY,MEDICINE,,,,,,WORKER,VISITOR,short,resources/sound/trials/audio_stim_comp17.mp3,5cc076320004360001ed90dc,44,Female,Right handed,2021-07-26_21h08.36.098,MA Experiment 2,2021.1.2,Linux x86_64,60.01680471,1,18,52,6,1,,,,,
0.538865,response_2,,FAIRY,INSTRUMENT,,,,,,ICY,JITTERBUG,short,resources/sound/catchTrials/audio_control_comp_project08.mp3,5cc076320004360001ed90dc,44,Female,Right handed,2021-07-26_21h08.36.098,MA Experiment 2,2021.1.2,Linux x86_64,60.01680471,,,,,,0,7,7,7,1
3.254425,response_1,shortFoil,SINGER,ANTIQUE,,,,,,PARTY,SANCTUARY,short,resources/sound/trials/audio_stim_human50.mp3,5cc076320004360001ed90dc,44,Female,Right handed,2021-07-26_21h08.36.098,MA Experiment 2,2021.1.2,Linux x86_64,60.01680471,1,19,53,14,1,,,,,
1.839415,response_1,shortValid,STOCKING,GYMNASTICS,,,,,,CONCRETE,ENEMY,short,resources/sound/trials/audio_stim_human67.mp3,5cc076320004360001ed90dc,44,Female,Right handed,2021-07-26_21h08.36.098,MA Experiment 2,2021.1.2,Linux x86_64,60.01680471,1,20,54,10,1,,,,,
1.78812,response_1,shortValid,DANCER,CARNATION,,,,,,PAINTER,VEHICLE,long,resources/sound/trials/audio_stim_human47.mp3,5cc076320004360001ed90dc,44,Female,Right handed,2021-07-26_21h08.36.098,MA Experiment 2,2021.1.2,Linux x86_64,60.01680471,1,21,55,28,1,,,,,
1.220505,response_2,longValid,MURAL,ATTENDANT,,,,,,MARBLE,CUSTOMER,short,resources/sound/trials/audio_stim_comp65.mp3,5cc076320004360001ed90dc,44,Female,Right handed,2021-07-26_21h08.36.098,MA Experiment 2,2021.1.2,Linux x86_64,60.01680471,1,22,56,4,1,,,,,
1.10254,response_2,,SHOULDER,APPLIANCE,,,,,,NAVY,RECTANGLE,short,resources/sound/catchTrials/audio_control_human_project06.mp3,5cc076320004360001ed90dc,44,Female,Right handed,2021-07-26_21h08.36.098,MA Experiment 2,2021.1.2,Linux x86_64,60.01680471,,,,,,0,27,27,14,1
1.803545,response_1,longValid,LIQUID,HANDKERCHIEF,,,,,,ROBBER,RATTLESNAKE,short,resources/sound/trials/audio_stim_human64.mp3,5cc076320004360001ed90dc,44,Female,Right handed,2021-07-26_21h08.36.098,MA Experiment 2,2021.1.2,Linux x86_64,60.01680471,1,23,57,15,1,,,,,
1.17201,response_2,shortValid,MISTRESS,CHOCOLATE,,,,,,HARDWARE,OVERCOAT,short,resources/sound/trials/audio_stim_human35.mp3,5cc076320004360001ed90dc,44,Female,Right handed,2021-07-26_21h08.36.098,MA Experiment 2,2021.1.2,Linux x86_64,60.01680471,1,24,58,8,1,,,,,
2.022905,response_2,shortValid,TUMBLE,NEIGHBOURHOOD,,,,,,SACRED,GALAXY,short,resources/sound/trials/audio_stim_comp1.mp3,5cc076320004360001ed90dc,44,Female,Right handed,2021-07-26_21h08.36.098,MA Experiment 2,2021.1.2,Linux x86_64,60.01680471,1,25,59,7,1,,,,,
1.33795,response_1,shortValid,RABBI,HEROIN,,,,,,DAYLIGHT,MATERIAL,short,resources/sound/trials/audio_stim_human42.mp3,5cc076320004360001ed90dc,44,Female,Right handed,2021-07-26_21h08.36.098,MA Experiment 2,2021.1.2,Linux x86_64,60.01680471,1,26,60,9,1,,,,,
1.73929,response_1,,SADDLE,CANDLELIGHT,,,,,,JUGGLER,DANDELION,short,resources/sound/catchTrials/audio_control_human_project09.mp3,5cc076320004360001ed90dc,44,Female,Right handed,2021-07-26_21h08.36.098,MA Experiment 2,2021.1.2,Linux x86_64,60.01680471,,,,,,0,20,20,15,1
1.25852,response_2,longValid,PIPING,FIREWOOD,,,,,,RECEIPT,LIMOUSINE,long,resources/sound/trials/audio_stim_comp40.mp3,5cc076320004360001ed90dc,44,Female,Right handed,2021-07-26_21h08.36.098,MA Experiment 2,2021.1.2,Linux x86_64,60.01680471,1,27,61,19,1,,,,,
1.523,response_2,shortFoil,CURFEW,CIGARETTE,,,,,,BRAINSTORM,GREEN NEEDLE,short,resources/sound/trials/audio_stim_original.mp3,5cc076320004360001ed90dc,44,Female,Right handed,2021-07-26_21h08.36.098,MA Experiment 2,2021.1.2,Linux x86_64,60.01680471,1,28,62,16,1,,,,,
1.891615,response_2,shortFoil,LEADER,CONVENTION,,,,,,WHISTLE,TREASURER,short,resources/sound/trials/audio_stim_comp12.mp3,5cc076320004360001ed90dc,44,Female,Right handed,2021-07-26_21h08.36.098,MA Experiment 2,2021.1.2,Linux x86_64,60.01680471,1,29,63,3,1,,,,,
1.15742,response_1,shortValid,INVOICE,UMBRELLA,,,,,,DRIZZLE,CARDINAL,long,resources/sound/trials/audio_stim_comp69.mp3,5cc076320004360001ed90dc,44,Female,Right handed,2021-07-26_21h08.36.098,MA Experiment 2,2021.1.2,Linux x86_64,60.01680471,1,30,64,17,1,,,,,
0.77224,response_2,,PICTURE,PROFESSOR,,,,,,IRIS,VIOLIN,long,resources/sound/catchTrials/audio_control_human_project12.mp3,5cc076320004360001ed90dc,44,Female,Right handed,2021-07-26_21h08.36.098,MA Experiment 2,2021.1.2,Linux x86_64,60.01680471,,,,,,0,28,28,24,1
2.492165,response_1,longFoil,WRITING,CITIZEN,,,,,,MINER,EMERALD,short,resources/sound/trials/audio_stim_comp6.mp3,5cc076320004360001ed90dc,44,Female,Right handed,2021-07-26_21h08.36.098,MA Experiment 2,2021.1.2,Linux x86_64,60.01680471,1,31,65,1,1,,,,,
0.9721,response_1,longFoil,PIANO,TEMPERATURE,,,,,,DRIZZLE,CARDINAL,short,resources/sound/trials/audio_stim_comp69.mp3,5cc076320004360001ed90dc,44,Female,Right handed,2021-07-26_21h08.36.098,MA Experiment 2,2021.1.2,Linux x86_64,60.01680471,1,32,66,0,1,,,,,
1.88792,response_2,longFoil,VAPOUR,OXYGEN,,,,,,RUBBER,PROPERTY,short,resources/sound/trials/audio_stim_human0.mp3,5cc076320004360001ed90dc,44,Female,Right handed,2021-07-26_21h08.36.098,MA Experiment 2,2021.1.2,Linux x86_64,60.01680471,1,33,67,12,1,,,,,
1.72246,response_1,shortValid,VESSEL,TANGERINE,,,,,,WORKER,VISITOR,long,resources/sound/trials/audio_stim_comp17.mp3,5cc076320004360001ed90dc,44,Female,Right handed,2021-07-26_21h08.36.098,MA Experiment 2,2021.1.2,Linux x86_64,60.01680471,2,0,68,23,1,,,,,
1.4716,response_2,shortFoil,EVENING,CORRIDOR,,,,,,HARDWARE,OVERCOAT,long,resources/sound/trials/audio_stim_human35.mp3,5cc076320004360001ed90dc,44,Female,Right handed,2021-07-26_21h08.36.098,MA Experiment 2,2021.1.2,Linux x86_64,60.01680471,2,1,69,25,1,,,,,
1.42041,response_2,shortFoil,OLIVE,MICROSCOPE,,,,,,RUBBER,PROPERTY,short,resources/sound/trials/audio_stim_human0.mp3,5cc076320004360001ed90dc,44,Female,Right handed,2021-07-26_21h08.36.098,MA Experiment 2,2021.1.2,Linux x86_64,60.01680471,2,2,70,12,1,,,,,
1.073575,response_2,,INVOICE,CARNATION,,,,,,JOURNAL,ROBBERY,short,resources/sound/catchTrials/audio_control_human_project02.mp3,5cc076320004360001ed90dc,44,Female,Right handed,2021-07-26_21h08.36.098,MA Experiment 2,2021.1.2,Linux x86_64,60.01680471,,,,,,0,8,8,13,1
1.15629,response_2,longValid,SODA,STRAWBERRY,,,,,,HARDWARE,OVERCOAT,short,resources/sound/trials/audio_stim_human35.mp3,5cc076320004360001ed90dc,44,Female,Right handed,2021-07-26_21h08.36.098,MA Experiment 2,2021.1.2,Linux x86_64,60.01680471,2,3,71,8,1,,,,,
1.671865,response_2,longFoil,PIPING,INDUSTRY,,,,,,BRAINSTORM,GREEN NEEDLE,short,resources/sound/trials/audio_stim_original.mp3,5cc076320004360001ed90dc,44,Female,Right handed,2021-07-26_21h08.36.098,MA Experiment 2,2021.1.2,Linux x86_64,60.01680471,2,4,72,16,1,,,,,
2.02435,response_1,longFoil,FERTILE,JANITOR,,,,,,WHISTLE,TREASURER,long,resources/sound/trials/audio_stim_comp12.mp3,5cc076320004360001ed90dc,44,Female,Right handed,2021-07-26_21h08.36.098,MA Experiment 2,2021.1.2,Linux x86_64,60.01680471,2,5,73,20,1,,,,,
1.160365,response_1,shortFoil,CANTEEN,HURRICANE,,,,,,MINER,EMERALD,short,resources/sound/trials/audio_stim_comp6.mp3,5cc076320004360001ed90dc,44,Female,Right handed,2021-07-26_21h08.36.098,MA Experiment 2,2021.1.2,Linux x86_64,60.01680471,2,6,74,1,1,,,,,
1.30452,response_2,,WIRE,COMMITTEE,,,,,,JOURNAL,ROBBERY,long,resources/sound/catchTrials/audio_control_human_project02.mp3,5cc076320004360001ed90dc,44,Female,Right handed,2021-07-26_21h08.36.098,MA Experiment 2,2021.1.2,Linux x86_64,60.01680471,,,,,,0,21,21,29,1
1.704865,response_1,longFoil,FAIRY,CROCODILE,,,,,,WORKER,VISITOR,short,resources/sound/trials/audio_stim_comp17.mp3,5cc076320004360001ed90dc,44,Female,Right handed,2021-07-26_21h08.36.098,MA Experiment 2,2021.1.2,Linux x86_64,60.01680471,2,7,75,6,1,,,,,
1.356085,response_1,longFoil,MORNING,ATHLETICS,,,,,,DAYLIGHT,MATERIAL,short,resources/sound/trials/audio_stim_human42.mp3,5cc076320004360001ed90dc,44,Female,Right handed,2021-07-26_21h08.36.098,MA Experiment 2,2021.1.2,Linux x86_64,60.01680471,2,8,76,9,1,,,,,
0.791015,response_1,longValid,RABBI,RETAILER,,,,,,CONCRETE,ENEMY,short,resources/sound/trials/audio_stim_human67.mp3,5cc076320004360001ed90dc,44,Female,Right handed,2021-07-26_21h08.36.098,MA Experiment 2,2021.1.2,Linux x86_64,60.01680471,2,9,77,10,1,,,,,
1.1071,response_2,longValid,DWELLER,VINEGAR,,,,,,PARTY,SANCTUARY,short,resources/sound/trials/audio_stim_human50.mp3,5cc076320004360001ed90dc,44,Female,Right handed,2021-07-26_21h08.36.098,MA Experiment 2,2021.1.2,Linux x86_64,60.01680471,2,10,78,14,1,,,,,
0.939215,response_1,,DUEL,HEADQUARTERS,,,,,,POISON,REVOLVER,short,resources/sound/catchTrials/audio_control_human_project01.mp3,5cc076320004360001ed90dc,44,Female,Right handed,2021-07-26_21h08.36.098,MA Experiment 2,2021.1.2,Linux x86_64,60.01680471,,,,,,0,19,19,9,1
1.720385,response_2,longValid,MISTRESS,AMMONIA,,,,,,RECEIPT,LIMOUSINE,short,resources/sound/trials/audio_stim_comp40.mp3,5cc076320004360001ed90dc,44,Female,Right handed,2021-07-26_21h08.36.098,MA Experiment 2,2021.1.2,Linux x86_64,60.01680471,2,11,79,2,1,,,,,
1.46101,response_2,longFoil,FOREARM,CATHEDRAL,,,,,,RECEIPT,LIMOUSINE,long,resources/sound/trials/audio_stim_comp40.mp3,5cc076320004360001ed90dc,44,Female,Right handed,2021-07-26_21h08.36.098,MA Experiment 2,2021.1.2,Linux x86_64,60.01680471,2,12,80,19,1,,,,,
1.6746,response_1,shortValid,SCOOTER,BEVERAGE,,,,,,WHISTLE,TREASURER,short,resources/sound/trials/audio_stim_comp12.mp3,5cc076320004360001ed90dc,44,Female,Right handed,2021-07-26_21h08.36.098,MA Experiment 2,2021.1.2,Linux x86_64,60.01680471,2,13,81,3,1,,,,,
1.438085,response_1,shortFoil,MOONLIGHT,REFEREE,,,,,,ATHLETE,IVORY,long,resources/sound/trials/audio_stim_comp57.mp3,5cc076320004360001ed90dc,44,Female,Right handed,2021-07-26_21h08.36.098,MA Experiment 2,2021.1.2,Linux x86_64,60.01680471,2,14,82,22,1,,,,,
0.74214,response_2,,HAMMER,MONUMENT,,,,,,IRIS,VIOLIN,short,resources/sound/catchTrials/audio_control_human_project12.mp3,5cc076320004360001ed90dc,44,Female,Right handed,2021-07-26_21h08.36.098,MA Experiment 2,2021.1.2,Linux x86_64,60.01680471,,,,,,0,30,30,8,1
1.406075,response_2,shortValid,DIVING,MECHANIC,,,,,,BRAINSTORM,GREEN NEEDLE,long,resources/sound/trials/audio_stim_original.mp3,5cc076320004360001ed90dc,44,Female,Right handed,2021-07-26_21h08.36.098,MA Experiment 2,2021.1.2,Linux x86_64,60.01680471,2,15,83,33,1,,,,,
1.757625,response_1,shortValid,HARBOUR,INTERVIEW,,,,,,MINER,EMERALD,long,resources/sound/trials/audio_stim_comp6.mp3,5cc076320004360001ed90dc,44,Female,Right handed,2021-07-26_21h08.36.098,MA Experiment 2,2021.1.2,Linux x86_64,60.01680471,2,16,84,18,1,,,,,
1.45668,response_2,longValid,KERNEL,TANGERINE,,,,,,SACRED,GALAXY,short,resources/sound/trials/audio_stim_comp1.mp3,5cc076320004360001ed90dc,44,Female,Right handed,2021-07-26_21h08.36.098,MA Experiment 2,2021.1.2,Linux x86_64,60.01680471,2,17,85,7,1,,,,,
0.808355,response_2,shortValid,LEADER,HOSPITAL,,,,,,PARTY,SANCTUARY,long,resources/sound/trials/audio_stim_human50.mp3,5cc076320004360001ed90dc,44,Female,Right handed,2021-07-26_21h08.36.098,MA Experiment 2,2021.1.2,Linux x86_64,60.01680471,2,18,86,31,1,,,,,
0.890495,response_2,,PRINCESS,PROPELLER,,,,,,CORNER,ENGINEER,long,resources/sound/catchTrials/audio_control_human_project14.mp3,5cc076320004360001ed90dc,44,Female,Right handed,2021-07-26_21h08.36.098,MA Experiment 2,2021.1.2,Linux x86_64,60.01680471,,,,,,0,29,29,26,1
1.521125,response_2,longFoil,CHIPMUNK,POLIO,,,,,,MARBLE,CUSTOMER,long,resources/sound/trials/audio_stim_comp65.mp3,5cc076320004360001ed90dc,44,Female,Right handed,2021-07-26_21h08.36.098,MA Experiment 2,2021.1.2,Linux x86_64,60.01680471,2,19,87,21,1,,,,,
1.1391,response_2,longFoil,POLO,CAMERA,,,,,,MINER,EMERALD,short,resources/sound/trials/audio_stim_human6.mp3,5cc076320004360001ed90dc,44,Female,Right handed,2021-07-26_21h08.36.098,MA Experiment 2,2021.1.2,Linux x86_64,60.01680471,2,20,88,13,1,,,,,
1.205435,response_1,shortFoil,OFFICE,TEMPERATURE,,,,,,DAYLIGHT,MATERIAL,long,resources/sound/trials/audio_stim_human42.mp3,5cc076320004360001ed90dc,44,Female,Right handed,2021-07-26_21h08.36.098,MA Experiment 2,2021.1.2,Linux x86_64,60.01680471,2,21,89,26,1,,,,,
1.67517,response_1,longValid,FEVER,MOSQUITO,,,,,,PAINTER,VEHICLE,long,resources/sound/trials/audio_stim_human47.mp3,5cc076320004360001ed90dc,44,Female,Right handed,2021-07-26_21h08.36.098,MA Experiment 2,2021.1.2,Linux x86_64,60.01680471,2,22,90,28,1,,,,,
1.38882,response_2,,DIAL,CONVENTION,,,,,,HOBBY,COLONY,short,resources/sound/catchTrials/audio_control_comp_project04.mp3,5cc076320004360001ed90dc,44,Female,Right handed,2021-07-26_21h08.36.098,MA Experiment 2,2021.1.2,Linux x86_64,60.01680471,,,,,,0,16,16,2,1
1.6912,response_2,shortFoil,PICTURE,HONEYMOON,,,,,,ROBBER,RATTLESNAKE,short,resources/sound/trials/audio_stim_human64.mp3,5cc076320004360001ed90dc,44,Female,Right handed,2021-07-26_21h08.36.098,MA Experiment 2,2021.1.2,Linux x86_64,60.01680471,2,23,91,15,1,,,,,
1.421925,response_1,shortFoil,SULPHUR,GOVERNMENT,,,,,,ATHLETE,IVORY,short,resources/sound/trials/audio_stim_comp57.mp3,5cc076320004360001ed90dc,44,Female,Right handed,2021-07-26_21h08.36.098,MA Experiment 2,2021.1.2,Linux x86_64,60.01680471,2,24,92,5,1,,,,,
1.60427,response_1,longValid,TORTURE,MINISTER,,,,,,DRIZZLE,CARDINAL,short,resources/sound/trials/audio_stim_comp69.mp3,5cc076320004360001ed90dc,44,Female,Right handed,2021-07-26_21h08.36.098,MA Experiment 2,2021.1.2,Linux x86_64,60.01680471,2,25,93,0,1,,,,,
1.19083,response_2,shortValid,BEETLE,OXYGEN,,,,,,RUBBER,PROPERTY,long,resources/sound/trials/audio_stim_human0.mp3,5cc076320004360001ed90dc,44,Female,Right handed,2021-07-26_21h08.36.098,MA Experiment 2,2021.1.2,Linux x86_64,60.01680471,2,26,94,29,1,,,,,
1.606835,response_2,,ANCHOR,AVENUE,,,,,,CORNER,ENGINEER,short,resources/sound/catchTrials/audio_control_comp_project14.mp3,5cc076320004360001ed90dc,44,Female,Right handed,2021-07-26_21h08.36.098,MA Experiment 2,2021.1.2,Linux x86_64,60.01680471,,,,,,0,11,11,1,1
0.972005,response_2,longFoil,DOORWAY,ANTIQUE,,,,,,MARBLE,CUSTOMER,short,resources/sound/trials/audio_stim_comp65.mp3,5cc076320004360001ed90dc,44,Female,Right handed,2021-07-26_21h08.36.098,MA Experiment 2,2021.1.2,Linux x86_64,60.01680471,2,27,95,4,1,,,,,
0.98744,response_1,shortValid,TRAITOR,UMBRELLA,,,,,,PAINTER,VEHICLE,short,resources/sound/trials/audio_stim_human47.mp3,5cc076320004360001ed90dc,44,Female,Right handed,2021-07-26_21h08.36.098,MA Experiment 2,2021.1.2,Linux x86_64,60.01680471,2,28,96,11,1,,,,,
1.35587,response_2,shortFoil,JURY,SETTLEMENT,,,,,,SACRED,GALAXY,long,resources/sound/trials/audio_stim_comp1.mp3,5cc076320004360001ed90dc,44,Female,Right handed,2021-07-26_21h08.36.098,MA Experiment 2,2021.1.2,Linux x86_64,60.01680471,2,29,97,24,1,,,,,
1.609285,response_1,longValid,CEREAL,CITIZEN,,,,,,DRIZZLE,CARDINAL,long,resources/sound/trials/audio_stim_comp69.mp3,5cc076320004360001ed90dc,44,Female,Right handed,2021-07-26_21h08.36.098,MA Experiment 2,2021.1.2,Linux x86_64,60.01680471,2,30,98,17,1,,,,,
1.624185,response_2,,TEMPLE,ALPHABET,,,,,,HOBBY,COLONY,short,resources/sound/catchTrials/audio_control_human_project04.mp3,5cc076320004360001ed90dc,44,Female,Right handed,2021-07-26_21h08.36.098,MA Experiment 2,2021.1.2,Linux x86_64,60.01680471,,,,,,0,4,4,11,1
1.321855,response_2,longValid,SHEEPSKIN,PHOTOGRAPH,,,,,,ROBBER,RATTLESNAKE,long,resources/sound/trials/audio_stim_human64.mp3,5cc076320004360001ed90dc,44,Female,Right handed,2021-07-26_21h08.36.098,MA Experiment 2,2021.1.2,Linux x86_64,60.01680471,2,31,99,32,1,,,,,
1.0731,response_1,longValid,MEASLES,ICICLE,,,,,,CONCRETE,ENEMY,long,resources/sound/trials/audio_stim_human67.mp3,5cc076320004360001ed90dc,44,Female,Right handed,2021-07-26_21h08.36.098,MA Experiment 2,2021.1.2,Linux x86_64,60.01680471,2,32,100,27,1,,,,,
1.056875,response_2,longValid,HAMSTER,LECTURER,,,,,,MINER,EMERALD,long,resources/sound/trials/audio_stim_human6.mp3,5cc076320004360001ed90dc,44,Female,Right handed,2021-07-26_21h08.36.098,MA Experiment 2,2021.1.2,Linux x86_64,60.01680471,2,33,101,30,1,,,,,
1.140865,response_1,longValid,NAPKIN,PROFESSOR,,,,,,DAYLIGHT,MATERIAL,long,resources/sound/trials/audio_stim_human42.mp3,5cc076320004360001ed90dc,44,Female,Right handed,2021-07-26_21h08.36.098,MA Experiment 2,2021.1.2,Linux x86_64,60.01680471,3,0,102,26,1,,,,,
1.37264,response_1,shortValid,SOFA,CANDLELIGHT,,,,,,WORKER,VISITOR,short,resources/sound/trials/audio_stim_comp17.mp3,5cc076320004360001ed90dc,44,Female,Right handed,2021-07-26_21h08.36.098,MA Experiment 2,2021.1.2,Linux x86_64,60.01680471,3,1,103,6,1,,,,,
0.852015,response_1,shortFoil,MURDER,ENVELOPE,,,,,,DAYLIGHT,MATERIAL,short,resources/sound/trials/audio_stim_human42.mp3,5cc076320004360001ed90dc,44,Female,Right handed,2021-07-26_21h08.36.098,MA Experiment 2,2021.1.2,Linux x86_64,60.01680471,3,2,104,9,1,,,,,
1.1179,response_1,,STATION,NEWSPAPER,,,,,,VIOLET,LUBRICANT,long,resources/sound/catchTrials/audio_control_human_project07.mp3,5cc076320004360001ed90dc,44,Female,Right handed,2021-07-26_21h08.36.098,MA Experiment 2,2021.1.2,Linux x86_64,60.01680471,,,,,,0,9,9,28,1
0.920195,response_1,shortValid,LIQUID,INJURY,,,,,,CONCRETE,ENEMY,long,resources/sound/trials/audio_stim_human67.mp3,5cc076320004360001ed90dc,44,Female,Right handed,2021-07-26_21h08.36.098,MA Experiment 2,2021.1.2,Linux x86_64,60.01680471,3,3,105,27,1,,,,,
1.638455,response_2,shortValid,MEDICINE,FISHERMAN,,,,,,MINER,EMERALD,long,resources/sound/trials/audio_stim_human6.mp3,5cc076320004360001ed90dc,44,Female,Right handed,2021-07-26_21h08.36.098,MA Experiment 2,2021.1.2,Linux x86_64,60.01680471,3,4,106,30,1,,,,,
1.102415,response_1,longValid,CABIN,GYMNASTICS,,,,,,WORKER,VISITOR,long,resources/sound/trials/audio_stim_comp17.mp3,5cc076320004360001ed90dc,44,Female,Right handed,2021-07-26_21h08.36.098,MA Experiment 2,2021.1.2,Linux x86_64,60.01680471,3,5,107,23,1,,,,,
2.35524,response_1,shortValid,INCOME,DISSECTION,,,,,,MINER,EMERALD,short,resources/sound/trials/audio_stim_comp6.mp3,5cc076320004360001ed90dc,44,Female,Right handed,2021-07-26_21h08.36.098,MA Experiment 2,2021.1.2,Linux x86_64,60.01680471,3,6,108,1,1,,,,,
1.40546,response_2,,SHOULDER,ORNAMENT,,,,,,SPINACH,APRICOT,long,resources/sound/catchTrials/audio_control_comp_project18.mp3,5cc076320004360001ed90dc,44,Female,Right handed,2021-07-26_21h08.36.098,MA Experiment 2,2021.1.2,Linux x86_64,60.01680471,,,,,,0,13,13,21,1
1.672935,response_1,shortValid,TWEEZER,GRASSHOPPER,,,,,,WHISTLE,TREASURER,long,resources/sound/trials/audio_stim_comp12.mp3,5cc076320004360001ed90dc,44,Female,Right handed,2021-07-26_21h08.36.098,MA Experiment 2,2021.1.2,Linux x86_64,60.01680471,3,7,109,20,1,,,,,
1.140485,response_2,longFoil,HURDLE,ENAMEL,,,,,,SACRED,GALAXY,short,resources/sound/trials/audio_stim_comp1.mp3,5cc076320004360001ed90dc,44,Female,Right handed,2021-07-26_21h08.36.098,MA Experiment 2,2021.1.2,Linux x86_64,60.01680471,3,8,110,7,1,,,,,
1.45436,response_2,longValid,SADDLE,POTATO,,,,,,PARTY,SANCTUARY,long,resources/sound/trials/audio_stim_human50.mp3,5cc076320004360001ed90dc,44,Female,Right handed,2021-07-26_21h08.36.098,MA Experiment 2,2021.1.2,Linux x86_64,60.01680471,3,9,111,31,1,,,,,
1.263415,response_1,longFoil,CAPTAIN,INSTITUTE,,,,,,ATHLETE,IVORY,long,resources/sound/trials/audio_stim_comp57.mp3,5cc076320004360001ed90dc,44,Female,Right handed,2021-07-26_21h08.36.098,MA Experiment 2,2021.1.2,Linux x86_64,60.01680471,3,10,112,22,1,,,,,
1.43816,response_2,,STOCKING,APPLIANCE,,,,,,NAVY,RECTANGLE,short,resources/sound/catchTrials/audio_control_comp_project06.mp3,5cc076320004360001ed90dc,44,Female,Right handed,2021-07-26_21h08.36.098,MA Experiment 2,2021.1.2,Linux x86_64,60.01680471,,,,,,0,0,0,6,1
1.493145,response_2,longValid,BUTTER,FAMILY,,,,,,MINER,EMERALD,short,resources/sound/trials/audio_stim_human6.mp3,5cc076320004360001ed90dc,44,Female,Right handed,2021-07-26_21h08.36.098,MA Experiment 2,2021.1.2,Linux x86_64,60.01680471,3,11,113,13,1,,,,,
1.155715,response_2,shortValid,NEIGHBOUR,BUTTERFLY,,,,,,SACRED,GALAXY,long,resources/sound/trials/audio_stim_comp1.mp3,5cc076320004360001ed90dc,44,Female,Right handed,2021-07-26_21h08.36.098,MA Experiment 2,2021.1.2,Linux x86_64,60.01680471,3,12,114,24,1,,,,,
1.66599,response_1,longFoil,FATHER,AMBULANCE,,,,,,DRIZZLE,CARDINAL,long,resources/sound/trials/audio_stim_comp69.mp3,5cc076320004360001ed90dc,44,Female,Right handed,2021-07-26_21h08.36.098,MA Experiment 2,2021.1.2,Linux x86_64,60.01680471,3,13,115,17,1,,,,,
1.42442,response_2,shortFoil,WAFER,INFECTION,,,,,,RUBBER,PROPERTY,long,resources/sound/trials/audio_stim_human0.mp3,5cc076320004360001ed90dc,44,Female,Right handed,2021-07-26_21h08.36.098,MA Experiment 2,2021.1.2,Linux x86_64,60.01680471,3,14,116,29,1,,,,,
1.005865,response_2,,BURNER,CINNAMON,,,,,,HOBBY,COLONY,long,resources/sound/catchTrials/audio_control_human_project04.mp3,5cc076320004360001ed90dc,44,Female,Right handed,2021-07-26_21h08.36.098,MA Experiment 2,2021.1.2,Linux x86_64,60.01680471,,,,,,0,2,2,27,1
0.924995,response_2,shortValid,NURSERY,GINGERBREAD,,,,,,RUBBER,PROPERTY,short,resources/sound/trials/audio_stim_human0.mp3,5cc076320004360001ed90dc,44,Female,Right handed,2021-07-26_21h08.36.098,MA Experiment 2,2021.1.2,Linux x86_64,60.01680471,3,15,117,12,1,,,,,
1.30562,response_2,longValid,GIRDLE,ASBESTOS,,,,,,MINER,EMERALD,long,resources/sound/trials/audio_stim_comp6.mp3,5cc076320004360001ed90dc,44,Female,Right handed,2021-07-26_21h08.36.098,MA Experiment 2,2021.1.2,Linux x86_64,60.01680471,3,16,118,18,1,,,,,
0.85618,response_2,shortValid,TUMBLE,INSTRUCTOR,,,,,,PARTY,SANCTUARY,short,resources/sound/trials/audio_stim_human50.mp3,5cc076320004360001ed90dc,44,Female,Right handed,2021-07-26_21h08.36.098,MA Experiment 2,2021.1.2,Linux x86_64,60.01680471,3,17,119,14,1,,,,,
1.19224,response_2,shortValid,VALLEY,ADMIRAL,,,,,,HARDWARE,OVERCOAT,long,resources/sound/trials/audio_stim_human35.mp3,5cc076320004360001ed90dc,44,Female,Right handed,2021-07-26_21h08.36.098,MA Experiment 2,2021.1.2,Linux x86_64,60.01680471,3,18,120,25,1,,,,,
0.75679,response_2,,NATIVE,GALLERY,,,,,,SPINACH,APRICOT,short,resources/sound/catchTrials/audio_control_comp_project18.mp3,5cc076320004360001ed90dc,44,Female,Right handed,2021-07-26_21h08.36.098,MA Experiment 2,2021.1.2,Linux x86_64,60.01680471,,,,,,0,23,23,5,1
1.939705,response_2,longFoil,GRADUATE,CABINET,,,,,,BRAINSTORM,GREEN NEEDLE,long,resources/sound/trials/audio_stim_original.mp3,5cc076320004360001ed90dc,44,Female,Right handed,2021-07-26_21h08.36.098,MA Experiment 2,2021.1.2,Linux x86_64,60.01680471,3,19,121,33,1,,,,,
1.83282,response_2,longFoil,NECKLACE,FACTORY,,,,,,RECEIPT,LIMOUSINE,short,resources/sound/trials/audio_stim_comp40.mp3,5cc076320004360001ed90dc,44,Female,Right handed,2021-07-26_21h08.36.098,MA Experiment 2,2021.1.2,Linux x86_64,60.01680471,3,20,122,2,1,,,,,
0.804335,response_1,shortFoil,LIGHTNING,CIGARETTE,,,,,,CONCRETE,ENEMY,short,resources/sound/trials/audio_stim_human67.mp3,5cc076320004360001ed90dc,44,Female,Right handed,2021-07-26_21h08.36.098,MA Experiment 2,2021.1.2,Linux x86_64,60.01680471,3,21,123,10,1,,,,,
1.289185,response_2,shortValid,MURAL,MINERAL,,,,,,ROBBER,RATTLESNAKE,short,resources/sound/trials/audio_stim_human64.mp3,5cc076320004360001ed90dc,44,Female,Right handed,2021-07-26_21h08.36.098,MA Experiment 2,2021.1.2,Linux x86_64,60.01680471,3,22,124,15,1,,,,,
1.049625,response_1,,CURFEW,POLICEMAN,,,,,,JUGGLER,DANDELION,long,resources/sound/catchTrials/audio_control_human_project09.mp3,5cc076320004360001ed90dc,44,Female,Right handed,2021-07-26_21h08.36.098,MA Experiment 2,2021.1.2,Linux x86_64,60.01680471,,,,,,0,12,12,31,1
1.32236,response_1,longFoil,DECOY,FIREWOOD,,,,,,PAINTER,VEHICLE,short,resources/sound/trials/audio_stim_human47.mp3,5cc076320004360001ed90dc,44,Female,Right handed,2021-07-26_21h08.36.098,MA Experiment 2,2021.1.2,Linux x86_64,60.01680471,3,23,125,11,1,,,,,
1.124715,response_1,shortFoil,EARTHWORM,HANDKERCHIEF,,,,,,DRIZZLE,CARDINAL,short,resources/sound/trials/audio_stim_comp69.mp3,5cc076320004360001ed90dc,44,Female,Right handed,2021-07-26_21h08.36.098,MA Experiment 2,2021.1.2,Linux x86_64,60.01680471,3,24,126,0,1,,,,,
1.521655,response_2,shortValid,UNCLE,SPECIALIST,,,,,,MARBLE,CUSTOMER,long,resources/sound/trials/audio_stim_comp65.mp3,5cc076320004360001ed90dc,44,Female,Right handed,2021-07-26_21h08.36.098,MA Experiment 2,2021.1.2,Linux x86_64,60.01680471,3,25,127,21,1,,,,,
1.08923,response_2,shortFoil,VAPOUR,ACROBAT,,,,,,HARDWARE,OVERCOAT,short,resources/sound/trials/audio_stim_human35.mp3,5cc076320004360001ed90dc,44,Female,Right handed,2021-07-26_21h08.36.098,MA Experiment 2,2021.1.2,Linux x86_64,60.01680471,3,26,128,8,1,,,,,
1.27134,response_2,,SINGER,MESSENGER,,,,,,NAVY,RECTANGLE,long,resources/sound/catchTrials/audio_control_human_project06.mp3,5cc076320004360001ed90dc,44,Female,Right handed,2021-07-26_21h08.36.098,MA Experiment 2,2021.1.2,Linux x86_64,60.01680471,,,,,,0,3,3,30,1
1.122025,response_2,shortValid,SEGMENT,ATTENDANT,,,,,,MARBLE,CUSTOMER,short,resources/sound/trials/audio_stim_comp65.mp3,5cc076320004360001ed90dc,44,Female,Right handed,2021-07-26_21h08.36.098,MA Experiment 2,2021.1.2,Linux x86_64,60.01680471,3,27,129,4,1,,,,,
1.241935,response_2,longValid,WALRUS,SAXOPHONE,,,,,,WHISTLE,TREASURER,short,resources/sound/trials/audio_stim_comp12.mp3,5cc076320004360001ed90dc,44,Female,Right handed,2021-07-26_21h08.36.098,MA Experiment 2,2021.1.2,Linux x86_64,60.01680471,3,28,130,3,1,,,,,
0.90619,response_1,longValid,LOBSTER,CHOCOLATE,,,,,,ATHLETE,IVORY,short,resources/sound/trials/audio_stim_comp57.mp3,5cc076320004360001ed90dc,44,Female,Right handed,2021-07-26_21h08.36.098,MA Experiment 2,2021.1.2,Linux x86_64,60.01680471,3,29,131,5,1,,,,,
1.792615,response_2,shortFoil,WINDOW,ABDOMEN,,,,,,ROBBER,RATTLESNAKE,long,resources/sound/trials/audio_stim_human64.mp3,5cc076320004360001ed90dc,44,Female,Right handed,2021-07-26_21h08.36.098,MA Experiment 2,2021.1.2,Linux x86_64,60.01680471,3,30,132,32,1,,,,,
0.75852,response_2,,BISHOP,ALCOHOL,,,,,,CORNER,ENGINEER,short,resources/sound/catchTrials/audio_control_human_project14.mp3,5cc076320004360001ed90dc,44,Female,Right handed,2021-07-26_21h08.36.098,MA Experiment 2,2021.1.2,Linux x86_64,60.01680471,,,,,,0,15,15,10,1
1.040645,response_2,longFoil,DANCER,MEDICINE,,,,,,PAINTER,VEHICLE,long,resources/sound/trials/audio_stim_human47.mp3,5cc076320004360001ed90dc,44,Female,Right handed,2021-07-26_21h08.36.098,MA Experiment 2,2021.1.2,Linux x86_64,60.01680471,3,31,133,28,1,,,,,
1.6061,response_2,longValid,KETTLE,FURNITURE,,,,,,BRAINSTORM,GREEN NEEDLE,short,resources/sound/trials/audio_stim_original.mp3,5cc076320004360001ed90dc,44,Female,Right handed,2021-07-26_21h08.36.098,MA Experiment 2,2021.1.2,Linux x86_64,60.01680471,3,32,134,16,1,,,,,
1.15474,response_2,shortValid,VILLAGE,HEROIN,,,,,,RECEIPT,LIMOUSINE,long,resources/sound/trials/audio_stim_comp40.mp3,5cc076320004360001ed90dc,44,Female,Right handed,2021-07-26_21h08.36.098,MA Experiment 2,2021.1.2,Linux x86_64,60.01680471,3,33,135,19,1,,,,,
