response.time,response,cueTarget,rand_foil_1,rand_foil_2,prac_trials.thisRepN,prac_trials.thisTrialN,prac_trials.thisN,prac_trials.thisIndex,prac_trials.ran,word_1,word_2,cue,file_path,participant,age,gender,handedness,date,expName,psychopyVersion,OS,frameRate,trials.thisRepN,trials.thisTrialN,trials.thisN,trials.thisIndex,trials.ran,catchTrials.thisRepN,catchTrials.thisTrialN,catchTrials.thisN,catchTrials.thisIndex,catchTrials.ran
,,shortFoil,TUMBLE,STRAWBERRY,0,0,0,8,1,DAGGER,EMPHASIS,long,resources/sound/prac_trials/practice_cue8.mp3,5e92f44d5321c16208625036,19,Female,Right handed,2021-07-26_21h25.46.721,MA Experiment 2,2021.1.2,Win32,60.00960154,,,,,,,,,,
1.618,response_2,longValid,FAIRY,ENAMEL,0,1,1,1,1,CABLE,REPUBLIC,short,resources/sound/prac_trials/practice_cue_human1.mp3,5e92f44d5321c16208625036,19,Female,Right handed,2021-07-26_21h25.46.721,MA Experiment 2,2021.1.2,Win32,60.00960154,,,,,,,,,,
1.1652,response_2,shortFoil,SOFA,INFECTION,0,2,2,6,1,VACANT,SALVATION,long,resources/sound/prac_trials/practice_cue6.mp3,5e92f44d5321c16208625036,19,Female,Right handed,2021-07-26_21h25.46.721,MA Experiment 2,2021.1.2,Win32,60.00960154,,,,,,,,,,
1.1332,response_2,longValid,BURNER,CATHEDRAL,0,3,3,2,1,RECENT,TOBACCO,short,resources/sound/prac_trials/practice_cue2.mp3,5e92f44d5321c16208625036,19,Female,Right handed,2021-07-26_21h25.46.721,MA Experiment 2,2021.1.2,Win32,60.00960154,,,,,,,,,,
0.9157,response_2,shortValid,WIRE,CORRIDOR,0,4,4,4,1,FIZZY,ELECTRIC,short,resources/sound/prac_trials/practice_cue4.mp3,5e92f44d5321c16208625036,19,Female,Right handed,2021-07-26_21h25.46.721,MA Experiment 2,2021.1.2,Win32,60.00960154,,,,,,,,,,
1.2987,response_2,shortFoil,MISTRESS,HOSPITAL,0,5,5,9,1,GRUMPY,LABYRINTH,long,resources/sound/prac_trials/practice_cue_human9.mp3,5e92f44d5321c16208625036,19,Female,Right handed,2021-07-26_21h25.46.721,MA Experiment 2,2021.1.2,Win32,60.00960154,,,,,,,,,,
0.9334,response_2,shortValid,RABBI,CAMERA,0,6,6,0,1,AARDVARK,FALLACY,short,resources/sound/prac_trials/practice_cue0.mp3,5e92f44d5321c16208625036,19,Female,Right handed,2021-07-26_21h25.46.721,MA Experiment 2,2021.1.2,Win32,60.00960154,,,,,,,,,,
1.782,response_2,longFoil,INVOICE,TEMPERATURE,0,7,7,5,1,NONSENSE,OASIS,short,resources/sound/prac_trials/practice_cue_human5.mp3,5e92f44d5321c16208625036,19,Female,Right handed,2021-07-26_21h25.46.721,MA Experiment 2,2021.1.2,Win32,60.00960154,,,,,,,,,,
0.7653,response_2,shortValid,CAPTAIN,RETAILER,0,8,8,7,1,BUCKLE,WALLABY,long,resources/sound/prac_trials/practice_cue_human7.mp3,5e92f44d5321c16208625036,19,Female,Right handed,2021-07-26_21h25.46.721,MA Experiment 2,2021.1.2,Win32,60.00960154,,,,,,,,,,
0.982,response_1,longValid,DIVING,AVENUE,0,9,9,3,1,EAGER,QUALIFY,short,resources/sound/prac_trials/practice_cue_human3.mp3,5e92f44d5321c16208625036,19,Female,Right handed,2021-07-26_21h25.46.721,MA Experiment 2,2021.1.2,Win32,60.00960154,,,,,,,,,,
1.4155,response_1,shortValid,SHOULDER,PROJECTOR,0,10,10,10,1,SAFFRON,JAVELIN,long,resources/sound/prac_trials/practice_cue10.mp3,5e92f44d5321c16208625036,19,Female,Right handed,2021-07-26_21h25.46.721,MA Experiment 2,2021.1.2,Win32,60.00960154,,,,,,,,,,
1.4325,response_1,longValid,HURDLE,CARNATION,0,11,11,11,1,KETCHUP,GONDOLA,long,resources/sound/prac_trials/practice_cue_human11.mp3,5e92f44d5321c16208625036,19,Female,Right handed,2021-07-26_21h25.46.721,MA Experiment 2,2021.1.2,Win32,60.00960154,,,,,,,,,,
1.2825,response_1,shortValid,TWEEZER,POLIO,,,,,,DRIZZLE,CARDINAL,short,resources/sound/trials/audio_stim_comp69.mp3,5e92f44d5321c16208625036,19,Female,Right handed,2021-07-26_21h25.46.721,MA Experiment 2,2021.1.2,Win32,60.00960154,0,0,0,0,1,,,,,
1.3979,response_1,longValid,RUSTY,MEDICINE,,,,,,WHISTLE,TREASURER,short,resources/sound/trials/audio_stim_comp12.mp3,5e92f44d5321c16208625036,19,Female,Right handed,2021-07-26_21h25.46.721,MA Experiment 2,2021.1.2,Win32,60.00960154,0,1,1,3,1,,,,,
1.0822,response_2,shortValid,NOVEL,POLICEMAN,,,,,,MINER,EMERALD,long,resources/sound/trials/audio_stim_comp6.mp3,5e92f44d5321c16208625036,19,Female,Right handed,2021-07-26_21h25.46.721,MA Experiment 2,2021.1.2,Win32,60.00960154,0,2,2,18,1,,,,,
1.1998,response_2,,PIANO,ATHLETICS,,,,,,NAVY,RECTANGLE,long,resources/sound/catchTrials/audio_control_human_project06.mp3,5e92f44d5321c16208625036,19,Female,Right handed,2021-07-26_21h25.46.721,MA Experiment 2,2021.1.2,Win32,60.00960154,,,,,,0,0,0,30,1
1.8155,response_2,shortValid,PICTURE,MINERAL,,,,,,PAINTER,VEHICLE,long,resources/sound/trials/audio_stim_human47.mp3,5e92f44d5321c16208625036,19,Female,Right handed,2021-07-26_21h25.46.721,MA Experiment 2,2021.1.2,Win32,60.00960154,0,3,3,28,1,,,,,
1.4166,response_1,shortFoil,NAPKIN,PHYSICIAN,,,,,,HARDWARE,OVERCOAT,short,resources/sound/trials/audio_stim_human35.mp3,5e92f44d5321c16208625036,19,Female,Right handed,2021-07-26_21h25.46.721,MA Experiment 2,2021.1.2,Win32,60.00960154,0,4,4,8,1,,,,,
0.9317,response_1,longFoil,SHEEPSKIN,INSTRUMENT,,,,,,DAYLIGHT,MATERIAL,long,resources/sound/trials/audio_stim_human42.mp3,5e92f44d5321c16208625036,19,Female,Right handed,2021-07-26_21h25.46.721,MA Experiment 2,2021.1.2,Win32,60.00960154,0,5,5,26,1,,,,,
1.8331,response_2,longFoil,BUTTER,OXYGEN,,,,,,BRAINSTORM,GREEN NEEDLE,long,resources/sound/trials/audio_stim_original.mp3,5e92f44d5321c16208625036,19,Female,Right handed,2021-07-26_21h25.46.721,MA Experiment 2,2021.1.2,Win32,60.00960154,0,6,6,33,1,,,,,
1.3822,response_2,,PRINCESS,CAPITAL,,,,,,JOURNAL,ROBBERY,short,resources/sound/catchTrials/audio_control_human_project02.mp3,5e92f44d5321c16208625036,19,Female,Right handed,2021-07-26_21h25.46.721,MA Experiment 2,2021.1.2,Win32,60.00960154,,,,,,0,4,4,13,1
1.4666,response_2,shortFoil,OFFICE,PHOTOGRAPH,,,,,,ATHLETE,IVORY,long,resources/sound/trials/audio_stim_comp57.mp3,5e92f44d5321c16208625036,19,Female,Right handed,2021-07-26_21h25.46.721,MA Experiment 2,2021.1.2,Win32,60.00960154,0,7,7,22,1,,,,,
1.1171,response_2,shortValid,GRADUATE,MERCURY,,,,,,RUBBER,PROPERTY,short,resources/sound/trials/audio_stim_human0.mp3,5e92f44d5321c16208625036,19,Female,Right handed,2021-07-26_21h25.46.721,MA Experiment 2,2021.1.2,Win32,60.00960154,0,8,8,12,1,,,,,
1.7985,response_1,longValid,NURSERY,ENVELOPE,,,,,,CONCRETE,ENEMY,short,resources/sound/trials/audio_stim_human67.mp3,5e92f44d5321c16208625036,19,Female,Right handed,2021-07-26_21h25.46.721,MA Experiment 2,2021.1.2,Win32,60.00960154,0,9,9,10,1,,,,,
1.5988,response_1,longFoil,ACRE,ANTIQUE,,,,,,MARBLE,CUSTOMER,short,resources/sound/trials/audio_stim_comp65.mp3,5e92f44d5321c16208625036,19,Female,Right handed,2021-07-26_21h25.46.721,MA Experiment 2,2021.1.2,Win32,60.00960154,0,10,10,4,1,,,,,
1.0491,response_2,,HAMSTER,CHOCOLATE,,,,,,IRIS,VIOLIN,long,resources/sound/catchTrials/audio_control_comp_project12.mp3,5e92f44d5321c16208625036,19,Female,Right handed,2021-07-26_21h25.46.721,MA Experiment 2,2021.1.2,Win32,60.00960154,,,,,,0,17,17,20,1
1.0337,response_1,longValid,EVENING,FIREWOOD,,,,,,MINER,EMERALD,short,resources/sound/trials/audio_stim_comp6.mp3,5e92f44d5321c16208625036,19,Female,Right handed,2021-07-26_21h25.46.721,MA Experiment 2,2021.1.2,Win32,60.00960154,0,11,11,1,1,,,,,
1.3649,response_1,shortValid,SCOOTER,ICICLE,,,,,,WHISTLE,TREASURER,long,resources/sound/trials/audio_stim_comp12.mp3,5e92f44d5321c16208625036,19,Female,Right handed,2021-07-26_21h25.46.721,MA Experiment 2,2021.1.2,Win32,60.00960154,0,12,12,20,1,,,,,
1.1988,response_2,shortFoil,SODA,COMMITTEE,,,,,,MINER,EMERALD,short,resources/sound/trials/audio_stim_human6.mp3,5e92f44d5321c16208625036,19,Female,Right handed,2021-07-26_21h25.46.721,MA Experiment 2,2021.1.2,Win32,60.00960154,0,13,13,13,1,,,,,
1.1003,response_2,longValid,HARBOUR,MINISTER,,,,,,WORKER,VISITOR,short,resources/sound/trials/audio_stim_comp17.mp3,5e92f44d5321c16208625036,19,Female,Right handed,2021-07-26_21h25.46.721,MA Experiment 2,2021.1.2,Win32,60.00960154,0,14,14,6,1,,,,,
0.7822,response_2,,CABIN,CABINET,,,,,,ICY,JITTERBUG,short,resources/sound/catchTrials/audio_control_comp_project08.mp3,5e92f44d5321c16208625036,19,Female,Right handed,2021-07-26_21h25.46.721,MA Experiment 2,2021.1.2,Win32,60.00960154,,,,,,0,14,14,7,1
1.1502,response_2,longFoil,SULPHUR,ALCOHOL,,,,,,BRAINSTORM,GREEN NEEDLE,short,resources/sound/trials/audio_stim_original.mp3,5e92f44d5321c16208625036,19,Female,Right handed,2021-07-26_21h25.46.721,MA Experiment 2,2021.1.2,Win32,60.00960154,0,15,15,16,1,,,,,
1.266,response_1,longFoil,FERTILE,AMBULANCE,,,,,,PAINTER,VEHICLE,short,resources/sound/trials/audio_stim_human47.mp3,5e92f44d5321c16208625036,19,Female,Right handed,2021-07-26_21h25.46.721,MA Experiment 2,2021.1.2,Win32,60.00960154,0,16,16,11,1,,,,,
1.4821,response_2,shortFoil,DANCER,CANDLELIGHT,,,,,,RECEIPT,LIMOUSINE,short,resources/sound/trials/audio_stim_comp40.mp3,5e92f44d5321c16208625036,19,Female,Right handed,2021-07-26_21h25.46.721,MA Experiment 2,2021.1.2,Win32,60.00960154,0,17,17,2,1,,,,,
1.032,response_1,shortFoil,NECKLACE,BEVERAGE,,,,,,DRIZZLE,CARDINAL,long,resources/sound/trials/audio_stim_comp69.mp3,5e92f44d5321c16208625036,19,Female,Right handed,2021-07-26_21h25.46.721,MA Experiment 2,2021.1.2,Win32,60.00960154,0,18,18,17,1,,,,,
1.149,response_1,,LIQUID,SETTLEMENT,,,,,,VIOLET,LUBRICANT,short,resources/sound/catchTrials/audio_control_human_project07.mp3,5e92f44d5321c16208625036,19,Female,Right handed,2021-07-26_21h25.46.721,MA Experiment 2,2021.1.2,Win32,60.00960154,,,,,,0,22,22,12,1
1.3,response_1,shortFoil,NATIVE,NEWSPAPER,,,,,,HARDWARE,OVERCOAT,long,resources/sound/trials/audio_stim_human35.mp3,5e92f44d5321c16208625036,19,Female,Right handed,2021-07-26_21h25.46.721,MA Experiment 2,2021.1.2,Win32,60.00960154,0,19,19,25,1,,,,,
0.9654,response_2,shortFoil,LOBSTER,ADMIRAL,,,,,,RUBBER,PROPERTY,long,resources/sound/trials/audio_stim_human0.mp3,5e92f44d5321c16208625036,19,Female,Right handed,2021-07-26_21h25.46.721,MA Experiment 2,2021.1.2,Win32,60.00960154,0,20,20,29,1,,,,,
1.0489,response_2,longValid,MOONLIGHT,ALPHABET,,,,,,MINER,EMERALD,long,resources/sound/trials/audio_stim_human6.mp3,5e92f44d5321c16208625036,19,Female,Right handed,2021-07-26_21h25.46.721,MA Experiment 2,2021.1.2,Win32,60.00960154,0,21,21,30,1,,,,,
0.9501,response_2,shortValid,FATHER,LECTURER,,,,,,ROBBER,RATTLESNAKE,short,resources/sound/trials/audio_stim_human64.mp3,5e92f44d5321c16208625036,19,Female,Right handed,2021-07-26_21h25.46.721,MA Experiment 2,2021.1.2,Win32,60.00960154,0,22,22,15,1,,,,,
0.9989,response_1,,MORNING,FISHERMAN,,,,,,VIOLET,LUBRICANT,short,resources/sound/catchTrials/audio_control_comp_project07.mp3,5e92f44d5321c16208625036,19,Female,Right handed,2021-07-26_21h25.46.721,MA Experiment 2,2021.1.2,Win32,60.00960154,,,,,,0,2,2,3,1
1.1822,response_2,shortFoil,TRAITOR,MOSQUITO,,,,,,SACRED,GALAXY,long,resources/sound/trials/audio_stim_comp1.mp3,5e92f44d5321c16208625036,19,Female,Right handed,2021-07-26_21h25.46.721,MA Experiment 2,2021.1.2,Win32,60.00960154,0,23,23,24,1,,,,,
1.0006,response_1,longFoil,ANCHOR,HURRICANE,,,,,,SACRED,GALAXY,short,resources/sound/trials/audio_stim_comp1.mp3,5e92f44d5321c16208625036,19,Female,Right handed,2021-07-26_21h25.46.721,MA Experiment 2,2021.1.2,Win32,60.00960154,0,24,24,7,1,,,,,
1.0001,response_1,longValid,WINDOW,ORNAMENT,,,,,,PARTY,SANCTUARY,long,resources/sound/trials/audio_stim_human50.mp3,5e92f44d5321c16208625036,19,Female,Right handed,2021-07-26_21h25.46.721,MA Experiment 2,2021.1.2,Win32,60.00960154,0,25,25,31,1,,,,,
1.1322,response_2,longFoil,LIGHTNING,INTERVIEW,,,,,,MARBLE,CUSTOMER,long,resources/sound/trials/audio_stim_comp65.mp3,5e92f44d5321c16208625036,19,Female,Right handed,2021-07-26_21h25.46.721,MA Experiment 2,2021.1.2,Win32,60.00960154,0,26,26,21,1,,,,,
1.2489,response_2,,KETTLE,VINEGAR,,,,,,BORDER,ALGEBRA,short,resources/sound/catchTrials/audio_control_comp_project00.mp3,5e92f44d5321c16208625036,19,Female,Right handed,2021-07-26_21h25.46.721,MA Experiment 2,2021.1.2,Win32,60.00960154,,,,,,0,27,27,0,1
0.8987,response_2,shortFoil,STOCKING,GALLERY,,,,,,RECEIPT,LIMOUSINE,long,resources/sound/trials/audio_stim_comp40.mp3,5e92f44d5321c16208625036,19,Female,Right handed,2021-07-26_21h25.46.721,MA Experiment 2,2021.1.2,Win32,60.00960154,0,27,27,19,1,,,,,
1.0835,response_2,longValid,CIGAR,INSTRUCTOR,,,,,,ROBBER,RATTLESNAKE,long,resources/sound/trials/audio_stim_human64.mp3,5e92f44d5321c16208625036,19,Female,Right handed,2021-07-26_21h25.46.721,MA Experiment 2,2021.1.2,Win32,60.00960154,0,28,28,32,1,,,,,
1.4653,response_1,shortFoil,CANTEEN,JANITOR,,,,,,ATHLETE,IVORY,short,resources/sound/trials/audio_stim_comp57.mp3,5e92f44d5321c16208625036,19,Female,Right handed,2021-07-26_21h25.46.721,MA Experiment 2,2021.1.2,Win32,60.00960154,0,29,29,5,1,,,,,
0.899,response_2,longFoil,PERSON,POTATO,,,,,,PARTY,SANCTUARY,short,resources/sound/trials/audio_stim_human50.mp3,5e92f44d5321c16208625036,19,Female,Right handed,2021-07-26_21h25.46.721,MA Experiment 2,2021.1.2,Win32,60.00960154,0,30,30,14,1,,,,,
1.1989,response_2,,LEADER,MICROSCOPE,,,,,,HOBBY,COLONY,short,resources/sound/catchTrials/audio_control_human_project04.mp3,5e92f44d5321c16208625036,19,Female,Right handed,2021-07-26_21h25.46.721,MA Experiment 2,2021.1.2,Win32,60.00960154,,,,,,0,29,29,11,1
0.8822,response_2,longValid,PODIUM,BUTTERFLY,,,,,,WORKER,VISITOR,long,resources/sound/trials/audio_stim_comp17.mp3,5e92f44d5321c16208625036,19,Female,Right handed,2021-07-26_21h25.46.721,MA Experiment 2,2021.1.2,Win32,60.00960154,0,31,31,23,1,,,,,
1.3656,response_1,longFoil,POLO,MONUMENT,,,,,,CONCRETE,ENEMY,long,resources/sound/trials/audio_stim_human67.mp3,5e92f44d5321c16208625036,19,Female,Right handed,2021-07-26_21h25.46.721,MA Experiment 2,2021.1.2,Win32,60.00960154,0,32,32,27,1,,,,,
1.0166,response_1,shortFoil,KENNEL,TANGERINE,,,,,,DAYLIGHT,MATERIAL,short,resources/sound/trials/audio_stim_human42.mp3,5e92f44d5321c16208625036,19,Female,Right handed,2021-07-26_21h25.46.721,MA Experiment 2,2021.1.2,Win32,60.00960154,0,33,33,9,1,,,,,
0.9333,response_1,shortFoil,SEGMENT,CLARINET,,,,,,PARTY,SANCTUARY,long,resources/sound/trials/audio_stim_human50.mp3,5e92f44d5321c16208625036,19,Female,Right handed,2021-07-26_21h25.46.721,MA Experiment 2,2021.1.2,Win32,60.00960154,1,0,34,31,1,,,,,
1.0656,response_2,shortValid,VAPOUR,PROFESSOR,,,,,,MINER,EMERALD,long,resources/sound/trials/audio_stim_human6.mp3,5e92f44d5321c16208625036,19,Female,Right handed,2021-07-26_21h25.46.721,MA Experiment 2,2021.1.2,Win32,60.00960154,1,1,35,30,1,,,,,
0.6654,response_1,longValid,SINGER,ASBESTOS,,,,,,DRIZZLE,CARDINAL,short,resources/sound/trials/audio_stim_comp69.mp3,5e92f44d5321c16208625036,19,Female,Right handed,2021-07-26_21h25.46.721,MA Experiment 2,2021.1.2,Win32,60.00960154,1,2,36,0,1,,,,,
0.9653,response_2,,MURAL,MESSENGER,,,,,,CORNER,ENGINEER,short,resources/sound/catchTrials/audio_control_comp_project14.mp3,5e92f44d5321c16208625036,19,Female,Right handed,2021-07-26_21h25.46.721,MA Experiment 2,2021.1.2,Win32,60.00960154,,,,,,0,23,23,1,1
1.5651,response_1,shortValid,CEREAL,SAXOPHONE,,,,,,BRAINSTORM,GREEN NEEDLE,long,resources/sound/trials/audio_stim_original.mp3,5e92f44d5321c16208625036,19,Female,Right handed,2021-07-26_21h25.46.721,MA Experiment 2,2021.1.2,Win32,60.00960154,1,3,37,33,1,,,,,
1.4822,response_1,longValid,SADDLE,HEADQUARTERS,,,,,,PAINTER,VEHICLE,short,resources/sound/trials/audio_stim_human47.mp3,5e92f44d5321c16208625036,19,Female,Right handed,2021-07-26_21h25.46.721,MA Experiment 2,2021.1.2,Win32,60.00960154,1,4,38,11,1,,,,,
1.0336,response_1,longFoil,MEDICINE,GOVERNMENT,,,,,,MINER,EMERALD,short,resources/sound/trials/audio_stim_comp6.mp3,5e92f44d5321c16208625036,19,Female,Right handed,2021-07-26_21h25.46.721,MA Experiment 2,2021.1.2,Win32,60.00960154,1,5,39,1,1,,,,,
0.8487,response_2,shortValid,OLIVE,DESTROYER,,,,,,WORKER,VISITOR,long,resources/sound/trials/audio_stim_comp17.mp3,5e92f44d5321c16208625036,19,Female,Right handed,2021-07-26_21h25.46.721,MA Experiment 2,2021.1.2,Win32,60.00960154,1,6,40,23,1,,,,,
0.8489,response_2,,DWELLER,GINGERBREAD,,,,,,SPINACH,APRICOT,short,resources/sound/catchTrials/audio_control_comp_project18.mp3,5e92f44d5321c16208625036,19,Female,Right handed,2021-07-26_21h25.46.721,MA Experiment 2,2021.1.2,Win32,60.00960154,,,,,,0,18,18,5,1
1.6333,response_1,longValid,VESSEL,GORILLA,,,,,,DAYLIGHT,MATERIAL,long,resources/sound/trials/audio_stim_human42.mp3,5e92f44d5321c16208625036,19,Female,Right handed,2021-07-26_21h25.46.721,MA Experiment 2,2021.1.2,Win32,60.00960154,1,7,41,26,1,,,,,
0.732,response_2,shortValid,TEMPLE,FACTORY,,,,,,WORKER,VISITOR,short,resources/sound/trials/audio_stim_comp17.mp3,5e92f44d5321c16208625036,19,Female,Right handed,2021-07-26_21h25.46.721,MA Experiment 2,2021.1.2,Win32,60.00960154,1,8,42,6,1,,,,,
1.2656,response_2,shortValid,VALLEY,ABDOMEN,,,,,,RECEIPT,LIMOUSINE,short,resources/sound/trials/audio_stim_comp40.mp3,5e92f44d5321c16208625036,19,Female,Right handed,2021-07-26_21h25.46.721,MA Experiment 2,2021.1.2,Win32,60.00960154,1,9,43,2,1,,,,,
1.5656,response_1,shortFoil,NEIGHBOUR,FURNITURE,,,,,,WHISTLE,TREASURER,short,resources/sound/trials/audio_stim_comp12.mp3,5e92f44d5321c16208625036,19,Female,Right handed,2021-07-26_21h25.46.721,MA Experiment 2,2021.1.2,Win32,60.00960154,1,10,44,3,1,,,,,
1.099,response_1,,FEVER,INDUSTRY,,,,,,VIOLET,LUBRICANT,long,resources/sound/catchTrials/audio_control_comp_project07.mp3,5e92f44d5321c16208625036,19,Female,Right handed,2021-07-26_21h25.46.721,MA Experiment 2,2021.1.2,Win32,60.00960154,,,,,,0,30,30,19,1
1.6667,response_2,shortFoil,TORTURE,GYMNASTICS,,,,,,CONCRETE,ENEMY,long,resources/sound/trials/audio_stim_human67.mp3,5e92f44d5321c16208625036,19,Female,Right handed,2021-07-26_21h25.46.721,MA Experiment 2,2021.1.2,Win32,60.00960154,1,11,45,27,1,,,,,
1.0336,response_1,shortValid,PIPING,MECHANIC,,,,,,SACRED,GALAXY,short,resources/sound/trials/audio_stim_comp1.mp3,5e92f44d5321c16208625036,19,Female,Right handed,2021-07-26_21h25.46.721,MA Experiment 2,2021.1.2,Win32,60.00960154,1,12,46,7,1,,,,,
1.0501,response_2,longFoil,HAMMER,EMULSION,,,,,,HARDWARE,OVERCOAT,short,resources/sound/trials/audio_stim_human35.mp3,5e92f44d5321c16208625036,19,Female,Right handed,2021-07-26_21h25.46.721,MA Experiment 2,2021.1.2,Win32,60.00960154,1,13,47,8,1,,,,,
1.0154,response_1,longFoil,MEASLES,SPECIALIST,,,,,,CONCRETE,ENEMY,short,resources/sound/trials/audio_stim_human67.mp3,5e92f44d5321c16208625036,19,Female,Right handed,2021-07-26_21h25.46.721,MA Experiment 2,2021.1.2,Win32,60.00960154,1,14,48,10,1,,,,,
1.2823,response_2,,PATIENT,INJURY,,,,,,CORNER,ENGINEER,short,resources/sound/catchTrials/audio_control_human_project14.mp3,5e92f44d5321c16208625036,19,Female,Right handed,2021-07-26_21h25.46.721,MA Experiment 2,2021.1.2,Win32,60.00960154,,,,,,0,25,25,10,1
1.2153,response_1,longValid,DUEL,FAMILY,,,,,,ATHLETE,IVORY,short,resources/sound/trials/audio_stim_comp57.mp3,5e92f44d5321c16208625036,19,Female,Right handed,2021-07-26_21h25.46.721,MA Experiment 2,2021.1.2,Win32,60.00960154,1,15,49,5,1,,,,,
1.183,response_2,shortValid,BISHOP,DISSECTION,,,,,,SACRED,GALAXY,long,resources/sound/trials/audio_stim_comp1.mp3,5e92f44d5321c16208625036,19,Female,Right handed,2021-07-26_21h25.46.721,MA Experiment 2,2021.1.2,Win32,60.00960154,1,16,50,24,1,,,,,
1.5989,response_1,shortFoil,DIAL,AMMONIA,,,,,,PAINTER,VEHICLE,long,resources/sound/trials/audio_stim_human47.mp3,5e92f44d5321c16208625036,19,Female,Right handed,2021-07-26_21h25.46.721,MA Experiment 2,2021.1.2,Win32,60.00960154,1,17,51,28,1,,,,,
0.8166,response_1,longFoil,KERNEL,CONVENTION,,,,,,MINER,EMERALD,long,resources/sound/trials/audio_stim_comp6.mp3,5e92f44d5321c16208625036,19,Female,Right handed,2021-07-26_21h25.46.721,MA Experiment 2,2021.1.2,Win32,60.00960154,1,18,52,18,1,,,,,
0.9646,response_2,,CURFEW,CITIZEN,,,,,,NAVY,RECTANGLE,short,resources/sound/catchTrials/audio_control_comp_project06.mp3,5e92f44d5321c16208625036,19,Female,Right handed,2021-07-26_21h25.46.721,MA Experiment 2,2021.1.2,Win32,60.00960154,,,,,,0,15,15,6,1
0.7648,response_2,shortFoil,WAFER,LEMONADE,,,,,,ROBBER,RATTLESNAKE,long,resources/sound/trials/audio_stim_human64.mp3,5e92f44d5321c16208625036,19,Female,Right handed,2021-07-26_21h25.46.721,MA Experiment 2,2021.1.2,Win32,60.00960154,1,19,53,32,1,,,,,
0.9165,response_2,longValid,BEETLE,UMBRELLA,,,,,,MINER,EMERALD,short,resources/sound/trials/audio_stim_human6.mp3,5e92f44d5321c16208625036,19,Female,Right handed,2021-07-26_21h25.46.721,MA Experiment 2,2021.1.2,Win32,60.00960154,1,20,54,13,1,,,,,
1.2323,response_1,shortValid,CRYSTAL,OPENING,,,,,,RUBBER,PROPERTY,long,resources/sound/trials/audio_stim_human0.mp3,5e92f44d5321c16208625036,19,Female,Right handed,2021-07-26_21h25.46.721,MA Experiment 2,2021.1.2,Win32,60.00960154,1,21,55,29,1,,,,,
1.1656,response_2,longValid,MURDER,NEIGHBOURHOOD,,,,,,MARBLE,CUSTOMER,long,resources/sound/trials/audio_stim_comp65.mp3,5e92f44d5321c16208625036,19,Female,Right handed,2021-07-26_21h25.46.721,MA Experiment 2,2021.1.2,Win32,60.00960154,1,22,56,21,1,,,,,
1.1155,response_2,,VILLAGE,DIAMOND,,,,,,CORNER,ENGINEER,long,resources/sound/catchTrials/audio_control_human_project14.mp3,5e92f44d5321c16208625036,19,Female,Right handed,2021-07-26_21h25.46.721,MA Experiment 2,2021.1.2,Win32,60.00960154,,,,,,0,6,6,26,1
1.7001,response_2,longFoil,FOREARM,CIGARETTE,,,,,,WHISTLE,TREASURER,long,resources/sound/trials/audio_stim_comp12.mp3,5e92f44d5321c16208625036,19,Female,Right handed,2021-07-26_21h25.46.721,MA Experiment 2,2021.1.2,Win32,60.00960154,1,23,57,20,1,,,,,
0.9167,response_2,shortFoil,MUSCLE,ACROBAT,,,,,,MARBLE,CUSTOMER,short,resources/sound/trials/audio_stim_comp65.mp3,5e92f44d5321c16208625036,19,Female,Right handed,2021-07-26_21h25.46.721,MA Experiment 2,2021.1.2,Win32,60.00960154,1,24,58,4,1,,,,,
1.0322,response_1,shortValid,INCOME,REFEREE,,,,,,HARDWARE,OVERCOAT,long,resources/sound/trials/audio_stim_human35.mp3,5e92f44d5321c16208625036,19,Female,Right handed,2021-07-26_21h25.46.721,MA Experiment 2,2021.1.2,Win32,60.00960154,1,25,59,25,1,,,,,
0.8835,response_2,shortFoil,GIRDLE,INSTITUTE,,,,,,ROBBER,RATTLESNAKE,short,resources/sound/trials/audio_stim_human64.mp3,5e92f44d5321c16208625036,19,Female,Right handed,2021-07-26_21h25.46.721,MA Experiment 2,2021.1.2,Win32,60.00960154,1,26,60,15,1,,,,,
0.9,response_2,,EARTHWORM,APPLIANCE,,,,,,HOBBY,COLONY,long,resources/sound/catchTrials/audio_control_comp_project04.mp3,5e92f44d5321c16208625036,19,Female,Right handed,2021-07-26_21h25.46.721,MA Experiment 2,2021.1.2,Win32,60.00960154,,,,,,0,21,21,18,1
0.7656,response_1,longFoil,UNCLE,HEROIN,,,,,,DAYLIGHT,MATERIAL,short,resources/sound/trials/audio_stim_human42.mp3,5e92f44d5321c16208625036,19,Female,Right handed,2021-07-26_21h25.46.721,MA Experiment 2,2021.1.2,Win32,60.00960154,1,27,61,9,1,,,,,
1.0503,response_1,shortFoil,CHIPMUNK,GRASSHOPPER,,,,,,RUBBER,PROPERTY,short,resources/sound/trials/audio_stim_human0.mp3,5e92f44d5321c16208625036,19,Female,Right handed,2021-07-26_21h25.46.721,MA Experiment 2,2021.1.2,Win32,60.00960154,1,28,62,12,1,,,,,
1.4488,response_2,longValid,DECOY,HANDKERCHIEF,,,,,,BRAINSTORM,GREEN NEEDLE,short,resources/sound/trials/audio_stim_original.mp3,5e92f44d5321c16208625036,19,Female,Right handed,2021-07-26_21h25.46.721,MA Experiment 2,2021.1.2,Win32,60.00960154,1,29,63,16,1,,,,,
0.7334,response_1,shortValid,DOORWAY,CINNAMON,,,,,,ATHLETE,IVORY,long,resources/sound/trials/audio_stim_comp57.mp3,5e92f44d5321c16208625036,19,Female,Right handed,2021-07-26_21h25.46.721,MA Experiment 2,2021.1.2,Win32,60.00960154,1,30,64,22,1,,,,,
0.9498,response_2,,JURY,PROPELLER,,,,,,NAVY,RECTANGLE,long,resources/sound/catchTrials/audio_control_comp_project06.mp3,5e92f44d5321c16208625036,19,Female,Right handed,2021-07-26_21h25.46.721,MA Experiment 2,2021.1.2,Win32,60.00960154,,,,,,0,11,11,22,1
1.1987,response_2,longValid,WALRUS,ATTENDANT,,,,,,RECEIPT,LIMOUSINE,long,resources/sound/trials/audio_stim_comp40.mp3,5e92f44d5321c16208625036,19,Female,Right handed,2021-07-26_21h25.46.721,MA Experiment 2,2021.1.2,Win32,60.00960154,1,31,65,19,1,,,,,
1.1154,response_2,longValid,STATION,CROCODILE,,,,,,PARTY,SANCTUARY,short,resources/sound/trials/audio_stim_human50.mp3,5e92f44d5321c16208625036,19,Female,Right handed,2021-07-26_21h25.46.721,MA Experiment 2,2021.1.2,Win32,60.00960154,1,32,66,14,1,,,,,
0.9996,response_1,shortValid,WRITING,HONEYMOON,,,,,,DRIZZLE,CARDINAL,long,resources/sound/trials/audio_stim_comp69.mp3,5e92f44d5321c16208625036,19,Female,Right handed,2021-07-26_21h25.46.721,MA Experiment 2,2021.1.2,Win32,60.00960154,1,33,67,17,1,,,,,
,,shortFoil,BERRY,MOLECULE,,,,,,DRIZZLE,CARDINAL,short,resources/sound/trials/audio_stim_comp69.mp3,5e92f44d5321c16208625036,19,Female,Right handed,2021-07-26_21h25.46.721,MA Experiment 2,2021.1.2,Win32,60.00960154,2,0,68,0,1,,,,,
1.0991,response_1,longValid,DWELLER,GALLERY,,,,,,SACRED,GALAXY,short,resources/sound/trials/audio_stim_comp1.mp3,5e92f44d5321c16208625036,19,Female,Right handed,2021-07-26_21h25.46.721,MA Experiment 2,2021.1.2,Win32,60.00960154,2,1,69,7,1,,,,,
0.5001,response_2,longFoil,EARTHWORM,HANDKERCHIEF,,,,,,ROBBER,RATTLESNAKE,short,resources/sound/trials/audio_stim_human64.mp3,5e92f44d5321c16208625036,19,Female,Right handed,2021-07-26_21h25.46.721,MA Experiment 2,2021.1.2,Win32,60.00960154,2,2,70,15,1,,,,,
0.8157,response_2,,NAPKIN,OXYGEN,,,,,,HOBBY,COLONY,short,resources/sound/catchTrials/audio_control_comp_project04.mp3,5e92f44d5321c16208625036,19,Female,Right handed,2021-07-26_21h25.46.721,MA Experiment 2,2021.1.2,Win32,60.00960154,,,,,,0,12,12,2,1
0.999,response_2,longValid,TEMPLE,LECTURER,,,,,,WHISTLE,TREASURER,long,resources/sound/trials/audio_stim_comp12.mp3,5e92f44d5321c16208625036,19,Female,Right handed,2021-07-26_21h25.46.721,MA Experiment 2,2021.1.2,Win32,60.00960154,2,3,71,20,1,,,,,
0.966,response_2,longValid,MEASLES,CARNATION,,,,,,RUBBER,PROPERTY,long,resources/sound/trials/audio_stim_human0.mp3,5e92f44d5321c16208625036,19,Female,Right handed,2021-07-26_21h25.46.721,MA Experiment 2,2021.1.2,Win32,60.00960154,2,4,72,29,1,,,,,
0.8656,response_2,shortValid,WRITING,FACTORY,,,,,,MARBLE,CUSTOMER,long,resources/sound/trials/audio_stim_comp65.mp3,5e92f44d5321c16208625036,19,Female,Right handed,2021-07-26_21h25.46.721,MA Experiment 2,2021.1.2,Win32,60.00960154,2,5,73,21,1,,,,,
0.9323,response_1,shortValid,FOREARM,TANGERINE,,,,,,CONCRETE,ENEMY,short,resources/sound/trials/audio_stim_human67.mp3,5e92f44d5321c16208625036,19,Female,Right handed,2021-07-26_21h25.46.721,MA Experiment 2,2021.1.2,Win32,60.00960154,2,6,74,10,1,,,,,
0.7002,response_2,,MUSCLE,CATHEDRAL,,,,,,SPINACH,APRICOT,long,resources/sound/catchTrials/audio_control_comp_project18.mp3,5e92f44d5321c16208625036,19,Female,Right handed,2021-07-26_21h25.46.721,MA Experiment 2,2021.1.2,Win32,60.00960154,,,,,,0,28,28,21,1
0.9168,response_2,longFoil,WAFER,ENAMEL,,,,,,ROBBER,RATTLESNAKE,long,resources/sound/trials/audio_stim_human64.mp3,5e92f44d5321c16208625036,19,Female,Right handed,2021-07-26_21h25.46.721,MA Experiment 2,2021.1.2,Win32,60.00960154,2,7,75,32,1,,,,,
1.7481,response_1,longFoil,BURNER,FURNITURE,,,,,,PAINTER,VEHICLE,long,resources/sound/trials/audio_stim_human47.mp3,5e92f44d5321c16208625036,19,Female,Right handed,2021-07-26_21h25.46.721,MA Experiment 2,2021.1.2,Win32,60.00960154,2,8,76,28,1,,,,,
1.4156,response_1,shortValid,PRINCESS,MECHANIC,,,,,,PARTY,SANCTUARY,long,resources/sound/trials/audio_stim_human50.mp3,5e92f44d5321c16208625036,19,Female,Right handed,2021-07-26_21h25.46.721,MA Experiment 2,2021.1.2,Win32,60.00960154,2,9,77,31,1,,,,,
1.5148,response_2,longFoil,WALRUS,ACROBAT,,,,,,WORKER,VISITOR,long,resources/sound/trials/audio_stim_comp17.mp3,5e92f44d5321c16208625036,19,Female,Right handed,2021-07-26_21h25.46.721,MA Experiment 2,2021.1.2,Win32,60.00960154,2,10,78,23,1,,,,,
1,response_2,,FEVER,HEROIN,,,,,,ICY,JITTERBUG,long,resources/sound/catchTrials/audio_control_comp_project08.mp3,5e92f44d5321c16208625036,19,Female,Right handed,2021-07-26_21h25.46.721,MA Experiment 2,2021.1.2,Win32,60.00960154,,,,,,0,19,19,23,1
1.0651,response_1,shortFoil,NOVEL,ATTENDANT,,,,,,PAINTER,VEHICLE,short,resources/sound/trials/audio_stim_human47.mp3,5e92f44d5321c16208625036,19,Female,Right handed,2021-07-26_21h25.46.721,MA Experiment 2,2021.1.2,Win32,60.00960154,2,11,79,11,1,,,,,
0.7487,response_1,shortValid,NECKLACE,SAXOPHONE,,,,,,MARBLE,CUSTOMER,short,resources/sound/trials/audio_stim_comp65.mp3,5e92f44d5321c16208625036,19,Female,Right handed,2021-07-26_21h25.46.721,MA Experiment 2,2021.1.2,Win32,60.00960154,2,12,80,4,1,,,,,
0.5161,response_1,shortValid,WINDOW,JANITOR,,,,,,DAYLIGHT,MATERIAL,short,resources/sound/trials/audio_stim_human42.mp3,5e92f44d5321c16208625036,19,Female,Right handed,2021-07-26_21h25.46.721,MA Experiment 2,2021.1.2,Win32,60.00960154,2,13,81,9,1,,,,,
1.0646,response_1,longFoil,BISHOP,PHYSICIAN,,,,,,MINER,EMERALD,short,resources/sound/trials/audio_stim_human6.mp3,5e92f44d5321c16208625036,19,Female,Right handed,2021-07-26_21h25.46.721,MA Experiment 2,2021.1.2,Win32,60.00960154,2,14,82,13,1,,,,,
0.9493,response_2,,KENNEL,COMMITTEE,,,,,,IRIS,VIOLIN,short,resources/sound/catchTrials/audio_control_comp_project12.mp3,5e92f44d5321c16208625036,19,Female,Right handed,2021-07-26_21h25.46.721,MA Experiment 2,2021.1.2,Win32,60.00960154,,,,,,0,5,5,4,1
0.6668,response_1,longValid,DOORWAY,CHOCOLATE,,,,,,HARDWARE,OVERCOAT,long,resources/sound/trials/audio_stim_human35.mp3,5e92f44d5321c16208625036,19,Female,Right handed,2021-07-26_21h25.46.721,MA Experiment 2,2021.1.2,Win32,60.00960154,2,15,83,25,1,,,,,
0.5833,response_1,longFoil,WIRE,CINNAMON,,,,,,DRIZZLE,CARDINAL,long,resources/sound/trials/audio_stim_comp69.mp3,5e92f44d5321c16208625036,19,Female,Right handed,2021-07-26_21h25.46.721,MA Experiment 2,2021.1.2,Win32,60.00960154,2,16,84,17,1,,,,,
1.2834,response_2,shortFoil,PIANO,GYMNASTICS,,,,,,MINER,EMERALD,long,resources/sound/trials/audio_stim_human6.mp3,5e92f44d5321c16208625036,19,Female,Right handed,2021-07-26_21h25.46.721,MA Experiment 2,2021.1.2,Win32,60.00960154,2,17,85,30,1,,,,,
1.1155,response_1,longFoil,PERSON,CIGARETTE,,,,,,RECEIPT,LIMOUSINE,long,resources/sound/trials/audio_stim_comp40.mp3,5e92f44d5321c16208625036,19,Female,Right handed,2021-07-26_21h25.46.721,MA Experiment 2,2021.1.2,Win32,60.00960154,2,18,86,19,1,,,,,
1.0823,response_2,,BEETLE,APPLIANCE,,,,,,IRIS,VIOLIN,long,resources/sound/catchTrials/audio_control_human_project12.mp3,5e92f44d5321c16208625036,19,Female,Right handed,2021-07-26_21h25.46.721,MA Experiment 2,2021.1.2,Win32,60.00960154,,,,,,0,24,24,24,1
0.8334,response_1,longFoil,POLO,GOVERNMENT,,,,,,ATHLETE,IVORY,short,resources/sound/trials/audio_stim_comp57.mp3,5e92f44d5321c16208625036,19,Female,Right handed,2021-07-26_21h25.46.721,MA Experiment 2,2021.1.2,Win32,60.00960154,2,19,87,5,1,,,,,
1.2658,response_1,shortValid,EVENING,ASBESTOS,,,,,,BRAINSTORM,GREEN NEEDLE,short,resources/sound/trials/audio_stim_original.mp3,5e92f44d5321c16208625036,19,Female,Right handed,2021-07-26_21h25.46.721,MA Experiment 2,2021.1.2,Win32,60.00960154,2,20,88,16,1,,,,,
1.3326,response_2,longValid,PIPING,ANTIQUE,,,,,,BRAINSTORM,GREEN NEEDLE,long,resources/sound/trials/audio_stim_original.mp3,5e92f44d5321c16208625036,19,Female,Right handed,2021-07-26_21h25.46.721,MA Experiment 2,2021.1.2,Win32,60.00960154,2,21,89,33,1,,,,,
1.0668,response_2,longValid,PATIENT,OPENING,,,,,,HARDWARE,OVERCOAT,short,resources/sound/trials/audio_stim_human35.mp3,5e92f44d5321c16208625036,19,Female,Right handed,2021-07-26_21h25.46.721,MA Experiment 2,2021.1.2,Win32,60.00960154,2,22,90,8,1,,,,,
1.1323,response_2,,OFFICE,CLARINET,,,,,,CORNER,ENGINEER,long,resources/sound/catchTrials/audio_control_comp_project14.mp3,5e92f44d5321c16208625036,19,Female,Right handed,2021-07-26_21h25.46.721,MA Experiment 2,2021.1.2,Win32,60.00960154,,,,,,0,16,16,17,1
1.0501,response_2,shortFoil,DIAL,CANDLELIGHT,,,,,,PARTY,SANCTUARY,short,resources/sound/trials/audio_stim_human50.mp3,5e92f44d5321c16208625036,19,Female,Right handed,2021-07-26_21h25.46.721,MA Experiment 2,2021.1.2,Win32,60.00960154,2,23,91,14,1,,,,,
0.998,response_2,longValid,MOONLIGHT,TEMPERATURE,,,,,,SACRED,GALAXY,long,resources/sound/trials/audio_stim_comp1.mp3,5e92f44d5321c16208625036,19,Female,Right handed,2021-07-26_21h25.46.721,MA Experiment 2,2021.1.2,Win32,60.00960154,2,24,92,24,1,,,,,
1.1167,response_1,longValid,BUTTER,POLIO,,,,,,RECEIPT,LIMOUSINE,short,resources/sound/trials/audio_stim_comp40.mp3,5e92f44d5321c16208625036,19,Female,Right handed,2021-07-26_21h25.46.721,MA Experiment 2,2021.1.2,Win32,60.00960154,2,25,93,2,1,,,,,
1.6835,response_1,shortValid,SEGMENT,ORNAMENT,,,,,,CONCRETE,ENEMY,long,resources/sound/trials/audio_stim_human67.mp3,5e92f44d5321c16208625036,19,Female,Right handed,2021-07-26_21h25.46.721,MA Experiment 2,2021.1.2,Win32,60.00960154,2,26,94,27,1,,,,,
1.1324,response_2,,LEADER,PROJECTOR,,,,,,IRIS,VIOLIN,short,resources/sound/catchTrials/audio_control_human_project12.mp3,5e92f44d5321c16208625036,19,Female,Right handed,2021-07-26_21h25.46.721,MA Experiment 2,2021.1.2,Win32,60.00960154,,,,,,0,10,10,8,1
1.199,response_1,shortValid,DUEL,ICICLE,,,,,,WHISTLE,TREASURER,short,resources/sound/trials/audio_stim_comp12.mp3,5e92f44d5321c16208625036,19,Female,Right handed,2021-07-26_21h25.46.721,MA Experiment 2,2021.1.2,Win32,60.00960154,2,27,95,3,1,,,,,
0.9321,response_1,shortFoil,NATIVE,AMBULANCE,,,,,,MINER,EMERALD,long,resources/sound/trials/audio_stim_comp6.mp3,5e92f44d5321c16208625036,19,Female,Right handed,2021-07-26_21h25.46.721,MA Experiment 2,2021.1.2,Win32,60.00960154,2,28,96,18,1,,,,,
1.1656,response_1,shortValid,KERNEL,ADMIRAL,,,,,,DAYLIGHT,MATERIAL,long,resources/sound/trials/audio_stim_human42.mp3,5e92f44d5321c16208625036,19,Female,Right handed,2021-07-26_21h25.46.721,MA Experiment 2,2021.1.2,Win32,60.00960154,2,29,97,26,1,,,,,
0.7823,response_1,shortFoil,MEDICINE,UMBRELLA,,,,,,MINER,EMERALD,short,resources/sound/trials/audio_stim_comp6.mp3,5e92f44d5321c16208625036,19,Female,Right handed,2021-07-26_21h25.46.721,MA Experiment 2,2021.1.2,Win32,60.00960154,2,30,98,1,1,,,,,
0.8656,response_1,,HAMSTER,SETTLEMENT,,,,,,VIOLET,LUBRICANT,long,resources/sound/catchTrials/audio_control_human_project07.mp3,5e92f44d5321c16208625036,19,Female,Right handed,2021-07-26_21h25.46.721,MA Experiment 2,2021.1.2,Win32,60.00960154,,,,,,0,13,13,28,1
1.0488,response_1,longFoil,STOCKING,PROPELLER,,,,,,RUBBER,PROPERTY,short,resources/sound/trials/audio_stim_human0.mp3,5e92f44d5321c16208625036,19,Female,Right handed,2021-07-26_21h25.46.721,MA Experiment 2,2021.1.2,Win32,60.00960154,2,31,99,12,1,,,,,
0.7824,response_1,shortFoil,RUSTY,GORILLA,,,,,,WORKER,VISITOR,short,resources/sound/trials/audio_stim_comp17.mp3,5e92f44d5321c16208625036,19,Female,Right handed,2021-07-26_21h25.46.721,MA Experiment 2,2021.1.2,Win32,60.00960154,2,32,100,6,1,,,,,
0.9169,response_1,longValid,MURDER,CAMERA,,,,,,ATHLETE,IVORY,long,resources/sound/trials/audio_stim_comp57.mp3,5e92f44d5321c16208625036,19,Female,Right handed,2021-07-26_21h25.46.721,MA Experiment 2,2021.1.2,Win32,60.00960154,2,33,101,22,1,,,,,
0.7981,response_1,longValid,KETTLE,INSTITUTE,,,,,,CONCRETE,ENEMY,long,resources/sound/trials/audio_stim_human67.mp3,5e92f44d5321c16208625036,19,Female,Right handed,2021-07-26_21h25.46.721,MA Experiment 2,2021.1.2,Win32,60.00960154,3,0,102,27,1,,,,,
1.6486,response_1,shortValid,VAPOUR,DIAMOND,,,,,,ATHLETE,IVORY,short,resources/sound/trials/audio_stim_comp57.mp3,5e92f44d5321c16208625036,19,Female,Right handed,2021-07-26_21h25.46.721,MA Experiment 2,2021.1.2,Win32,60.00960154,3,1,103,5,1,,,,,
1.1161,response_1,longFoil,SODA,HOSPITAL,,,,,,DRIZZLE,CARDINAL,short,resources/sound/trials/audio_stim_comp69.mp3,5e92f44d5321c16208625036,19,Female,Right handed,2021-07-26_21h25.46.721,MA Experiment 2,2021.1.2,Win32,60.00960154,3,2,104,0,1,,,,,
1.0152,response_2,,SHEEPSKIN,MOLECULE,,,,,,JOURNAL,ROBBERY,long,resources/sound/catchTrials/audio_control_human_project02.mp3,5e92f44d5321c16208625036,19,Female,Right handed,2021-07-26_21h25.46.721,MA Experiment 2,2021.1.2,Win32,60.00960154,,,,,,0,3,3,29,1
0.9669,response_1,longFoil,HARBOUR,AVENUE,,,,,,RECEIPT,LIMOUSINE,short,resources/sound/trials/audio_stim_comp40.mp3,5e92f44d5321c16208625036,19,Female,Right handed,2021-07-26_21h25.46.721,MA Experiment 2,2021.1.2,Win32,60.00960154,3,3,105,2,1,,,,,
1.2166,response_1,longFoil,SINGER,DISSECTION,,,,,,ATHLETE,IVORY,long,resources/sound/trials/audio_stim_comp57.mp3,5e92f44d5321c16208625036,19,Female,Right handed,2021-07-26_21h25.46.721,MA Experiment 2,2021.1.2,Win32,60.00960154,3,4,106,22,1,,,,,
0.9166,response_2,longValid,JURY,NEWSPAPER,,,,,,MARBLE,CUSTOMER,short,resources/sound/trials/audio_stim_comp65.mp3,5e92f44d5321c16208625036,19,Female,Right handed,2021-07-26_21h25.46.721,MA Experiment 2,2021.1.2,Win32,60.00960154,3,5,107,4,1,,,,,
1.0001,response_1,shortValid,GRADUATE,HEADQUARTERS,,,,,,ROBBER,RATTLESNAKE,long,resources/sound/trials/audio_stim_human64.mp3,5e92f44d5321c16208625036,19,Female,Right handed,2021-07-26_21h25.46.721,MA Experiment 2,2021.1.2,Win32,60.00960154,3,6,108,32,1,,,,,
1.1667,response_1,,SCOOTER,MOSQUITO,,,,,,JUGGLER,DANDELION,long,resources/sound/catchTrials/audio_control_human_project09.mp3,5e92f44d5321c16208625036,19,Female,Right handed,2021-07-26_21h25.46.721,MA Experiment 2,2021.1.2,Win32,60.00960154,,,,,,0,31,31,31,1
0.9989,response_2,longValid,ACRE,BUTTERFLY,,,,,,PAINTER,VEHICLE,long,resources/sound/trials/audio_stim_human47.mp3,5e92f44d5321c16208625036,19,Female,Right handed,2021-07-26_21h25.46.721,MA Experiment 2,2021.1.2,Win32,60.00960154,3,7,109,28,1,,,,,
1.1835,response_2,longFoil,CAPTAIN,INDUSTRY,,,,,,MINER,EMERALD,long,resources/sound/trials/audio_stim_human6.mp3,5e92f44d5321c16208625036,19,Female,Right handed,2021-07-26_21h25.46.721,MA Experiment 2,2021.1.2,Win32,60.00960154,3,8,110,30,1,,,,,
1.1336,response_1,shortFoil,MISTRESS,FIREWOOD,,,,,,DAYLIGHT,MATERIAL,long,resources/sound/trials/audio_stim_human42.mp3,5e92f44d5321c16208625036,19,Female,Right handed,2021-07-26_21h25.46.721,MA Experiment 2,2021.1.2,Win32,60.00960154,3,9,111,26,1,,,,,
1.0834,response_2,shortValid,SULPHUR,ATHLETICS,,,,,,RECEIPT,LIMOUSINE,long,resources/sound/trials/audio_stim_comp40.mp3,5e92f44d5321c16208625036,19,Female,Right handed,2021-07-26_21h25.46.721,MA Experiment 2,2021.1.2,Win32,60.00960154,3,10,112,19,1,,,,,
0.8497,response_2,,NEIGHBOUR,DESTROYER,,,,,,BORDER,ALGEBRA,long,resources/sound/catchTrials/audio_control_comp_project00.mp3,5e92f44d5321c16208625036,19,Female,Right handed,2021-07-26_21h25.46.721,MA Experiment 2,2021.1.2,Win32,60.00960154,,,,,,0,8,8,16,1
1.0168,response_1,shortValid,DANCER,CITIZEN,,,,,,PARTY,SANCTUARY,short,resources/sound/trials/audio_stim_human50.mp3,5e92f44d5321c16208625036,19,Female,Right handed,2021-07-26_21h25.46.721,MA Experiment 2,2021.1.2,Win32,60.00960154,3,11,113,14,1,,,,,
0.9823,response_2,shortFoil,VILLAGE,PROFESSOR,,,,,,MARBLE,CUSTOMER,long,resources/sound/trials/audio_stim_comp65.mp3,5e92f44d5321c16208625036,19,Female,Right handed,2021-07-26_21h25.46.721,MA Experiment 2,2021.1.2,Win32,60.00960154,3,12,114,21,1,,,,,
0.9815,response_2,longValid,TUMBLE,FISHERMAN,,,,,,RUBBER,PROPERTY,short,resources/sound/trials/audio_stim_human0.mp3,5e92f44d5321c16208625036,19,Female,Right handed,2021-07-26_21h25.46.721,MA Experiment 2,2021.1.2,Win32,60.00960154,3,13,115,12,1,,,,,
0.7006,response_1,longFoil,UNCLE,EMULSION,,,,,,SACRED,GALAXY,long,resources/sound/trials/audio_stim_comp1.mp3,5e92f44d5321c16208625036,19,Female,Right handed,2021-07-26_21h25.46.721,MA Experiment 2,2021.1.2,Win32,60.00960154,3,14,116,24,1,,,,,
1.199,response_1,,DIVING,INSTRUMENT,,,,,,POISON,REVOLVER,long,resources/sound/catchTrials/audio_control_human_project01.mp3,5e92f44d5321c16208625036,19,Female,Right handed,2021-07-26_21h25.46.721,MA Experiment 2,2021.1.2,Win32,60.00960154,,,,,,0,26,26,25,1
1.249,response_1,longFoil,SHOULDER,MONUMENT,,,,,,HARDWARE,OVERCOAT,long,resources/sound/trials/audio_stim_human35.mp3,5e92f44d5321c16208625036,19,Female,Right handed,2021-07-26_21h25.46.721,MA Experiment 2,2021.1.2,Win32,60.00960154,3,15,117,25,1,,,,,
1.1823,response_1,longValid,CANTEEN,GRASSHOPPER,,,,,,DRIZZLE,CARDINAL,long,resources/sound/trials/audio_stim_comp69.mp3,5e92f44d5321c16208625036,19,Female,Right handed,2021-07-26_21h25.46.721,MA Experiment 2,2021.1.2,Win32,60.00960154,3,16,118,17,1,,,,,
1.75,response_1,longFoil,LOBSTER,INSTRUCTOR,,,,,,WHISTLE,TREASURER,short,resources/sound/trials/audio_stim_comp12.mp3,5e92f44d5321c16208625036,19,Female,Right handed,2021-07-26_21h25.46.721,MA Experiment 2,2021.1.2,Win32,60.00960154,3,17,119,3,1,,,,,
1.0156,response_1,shortFoil,VALLEY,MERCURY,,,,,,CONCRETE,ENEMY,short,resources/sound/trials/audio_stim_human67.mp3,5e92f44d5321c16208625036,19,Female,Right handed,2021-07-26_21h25.46.721,MA Experiment 2,2021.1.2,Win32,60.00960154,3,18,120,10,1,,,,,
1.4157,response_1,,LIQUID,MINERAL,,,,,,POISON,REVOLVER,short,resources/sound/catchTrials/audio_control_human_project01.mp3,5e92f44d5321c16208625036,19,Female,Right handed,2021-07-26_21h25.46.721,MA Experiment 2,2021.1.2,Win32,60.00960154,,,,,,0,20,20,9,1
1.048,response_2,longFoil,CIGAR,MEDICINE,,,,,,RUBBER,PROPERTY,long,resources/sound/trials/audio_stim_human0.mp3,5e92f44d5321c16208625036,19,Female,Right handed,2021-07-26_21h25.46.721,MA Experiment 2,2021.1.2,Win32,60.00960154,3,19,121,29,1,,,,,
0.8324,response_1,shortFoil,PICTURE,GINGERBREAD,,,,,,WHISTLE,TREASURER,long,resources/sound/trials/audio_stim_comp12.mp3,5e92f44d5321c16208625036,19,Female,Right handed,2021-07-26_21h25.46.721,MA Experiment 2,2021.1.2,Win32,60.00960154,3,20,122,20,1,,,,,
0.8482,response_1,shortValid,LIGHTNING,ENVELOPE,,,,,,MINER,EMERALD,short,resources/sound/trials/audio_stim_comp6.mp3,5e92f44d5321c16208625036,19,Female,Right handed,2021-07-26_21h25.46.721,MA Experiment 2,2021.1.2,Win32,60.00960154,3,21,123,1,1,,,,,
1.0499,response_2,shortValid,VESSEL,AMMONIA,,,,,,HARDWARE,OVERCOAT,short,resources/sound/trials/audio_stim_human35.mp3,5e92f44d5321c16208625036,19,Female,Right handed,2021-07-26_21h25.46.721,MA Experiment 2,2021.1.2,Win32,60.00960154,3,22,124,8,1,,,,,
0.8656,response_2,,SOFA,LEMONADE,,,,,,NAVY,RECTANGLE,short,resources/sound/catchTrials/audio_control_human_project06.mp3,5e92f44d5321c16208625036,19,Female,Right handed,2021-07-26_21h25.46.721,MA Experiment 2,2021.1.2,Win32,60.00960154,,,,,,0,9,9,14,1
1.3325,response_1,shortValid,HAMMER,ALPHABET,,,,,,PAINTER,VEHICLE,short,resources/sound/trials/audio_stim_human47.mp3,5e92f44d5321c16208625036,19,Female,Right handed,2021-07-26_21h25.46.721,MA Experiment 2,2021.1.2,Win32,60.00960154,3,23,125,11,1,,,,,
0.9168,response_1,longFoil,TRAITOR,CAPITAL,,,,,,PARTY,SANCTUARY,long,resources/sound/trials/audio_stim_human50.mp3,5e92f44d5321c16208625036,19,Female,Right handed,2021-07-26_21h25.46.721,MA Experiment 2,2021.1.2,Win32,60.00960154,3,24,126,31,1,,,,,
0.7168,response_2,longValid,MORNING,HONEYMOON,,,,,,MINER,EMERALD,long,resources/sound/trials/audio_stim_comp6.mp3,5e92f44d5321c16208625036,19,Female,Right handed,2021-07-26_21h25.46.721,MA Experiment 2,2021.1.2,Win32,60.00960154,3,25,127,18,1,,,,,
1.1324,response_1,shortFoil,OLIVE,MINISTER,,,,,,SACRED,GALAXY,short,resources/sound/trials/audio_stim_comp1.mp3,5e92f44d5321c16208625036,19,Female,Right handed,2021-07-26_21h25.46.721,MA Experiment 2,2021.1.2,Win32,60.00960154,3,26,128,7,1,,,,,
0.8824,response_2,,RABBI,ALCOHOL,,,,,,HOBBY,COLONY,long,resources/sound/catchTrials/audio_control_human_project04.mp3,5e92f44d5321c16208625036,19,Female,Right handed,2021-07-26_21h25.46.721,MA Experiment 2,2021.1.2,Win32,60.00960154,,,,,,0,1,1,27,1
0.9489,response_2,shortFoil,CRYSTAL,PHOTOGRAPH,,,,,,WORKER,VISITOR,long,resources/sound/trials/audio_stim_comp17.mp3,5e92f44d5321c16208625036,19,Female,Right handed,2021-07-26_21h25.46.721,MA Experiment 2,2021.1.2,Win32,60.00960154,3,27,129,23,1,,,,,
0.8657,response_2,longValid,CABIN,SPECIALIST,,,,,,ROBBER,RATTLESNAKE,short,resources/sound/trials/audio_stim_human64.mp3,5e92f44d5321c16208625036,19,Female,Right handed,2021-07-26_21h25.46.721,MA Experiment 2,2021.1.2,Win32,60.00960154,3,28,130,15,1,,,,,
1.2327,response_1,longValid,DECOY,NEIGHBOURHOOD,,,,,,DAYLIGHT,MATERIAL,short,resources/sound/trials/audio_stim_human42.mp3,5e92f44d5321c16208625036,19,Female,Right handed,2021-07-26_21h25.46.721,MA Experiment 2,2021.1.2,Win32,60.00960154,3,29,131,9,1,,,,,
0.8148,response_2,longFoil,PODIUM,RETAILER,,,,,,WORKER,VISITOR,short,resources/sound/trials/audio_stim_comp17.mp3,5e92f44d5321c16208625036,19,Female,Right handed,2021-07-26_21h25.46.721,MA Experiment 2,2021.1.2,Win32,60.00960154,3,30,132,6,1,,,,,
1.0334,response_1,,FAIRY,POTATO,,,,,,JUGGLER,DANDELION,short,resources/sound/catchTrials/audio_control_human_project09.mp3,5e92f44d5321c16208625036,19,Female,Right handed,2021-07-26_21h25.46.721,MA Experiment 2,2021.1.2,Win32,60.00960154,,,,,,0,7,7,15,1
1.0334,response_1,shortValid,INVOICE,INFECTION,,,,,,MINER,EMERALD,short,resources/sound/trials/audio_stim_human6.mp3,5e92f44d5321c16208625036,19,Female,Right handed,2021-07-26_21h25.46.721,MA Experiment 2,2021.1.2,Win32,60.00960154,3,31,133,13,1,,,,,
1.2491,response_1,shortFoil,SADDLE,INJURY,,,,,,BRAINSTORM,GREEN NEEDLE,short,resources/sound/trials/audio_stim_original.mp3,5e92f44d5321c16208625036,19,Female,Right handed,2021-07-26_21h25.46.721,MA Experiment 2,2021.1.2,Win32,60.00960154,3,32,134,16,1,,,,,
1.2838,response_1,shortFoil,GIRDLE,CABINET,,,,,,BRAINSTORM,GREEN NEEDLE,long,resources/sound/trials/audio_stim_original.mp3,5e92f44d5321c16208625036,19,Female,Right handed,2021-07-26_21h25.46.721,MA Experiment 2,2021.1.2,Win32,60.00960154,3,33,135,33,1,,,,,
