response.time,response,cueTarget,rand_foil_1,rand_foil_2,prac_trials.thisRepN,prac_trials.thisTrialN,prac_trials.thisN,prac_trials.thisIndex,prac_trials.ran,word_1,word_2,cue,file_path,participant,age,gender,handedness,date,expName,psychopyVersion,OS,frameRate,trials.thisRepN,trials.thisTrialN,trials.thisN,trials.thisIndex,trials.ran,catchTrials.thisRepN,catchTrials.thisTrialN,catchTrials.thisN,catchTrials.thisIndex,catchTrials.ran
1.1894,response_2,shortValid,DWELLER,TANGERINE,0,0,0,4,1,FIZZY,ELECTRIC,short,resources/sound/prac_trials/practice_cue4.mp3,5f95a3272d19504163e83e70,37,Female,Right handed,2021-07-26_20h36.53.930,MA Experiment 2,2021.1.2,Win32,60.08893162,,,,,,,,,,
1.3514,response_2,longValid,GIRDLE,NEWSPAPER,0,1,1,5,1,NONSENSE,OASIS,short,resources/sound/prac_trials/practice_cue_human5.mp3,5f95a3272d19504163e83e70,37,Female,Right handed,2021-07-26_20h36.53.930,MA Experiment 2,2021.1.2,Win32,60.08893162,,,,,,,,,,
1.576,response_2,shortValid,STOCKING,LEMONADE,0,2,2,1,1,CABLE,REPUBLIC,short,resources/sound/prac_trials/practice_cue_human1.mp3,5f95a3272d19504163e83e70,37,Female,Right handed,2021-07-26_20h36.53.930,MA Experiment 2,2021.1.2,Win32,60.08893162,,,,,,,,,,
1.1906,response_2,shortValid,CABIN,JANITOR,0,3,3,9,1,GRUMPY,LABYRINTH,long,resources/sound/prac_trials/practice_cue_human9.mp3,5f95a3272d19504163e83e70,37,Female,Right handed,2021-07-26_20h36.53.930,MA Experiment 2,2021.1.2,Win32,60.08893162,,,,,,,,,,
1.7917,response_2,longFoil,BEETLE,POTATO,0,4,4,3,1,EAGER,QUALIFY,short,resources/sound/prac_trials/practice_cue_human3.mp3,5f95a3272d19504163e83e70,37,Female,Right handed,2021-07-26_20h36.53.930,MA Experiment 2,2021.1.2,Win32,60.08893162,,,,,,,,,,
1.3525,response_2,longFoil,DOORWAY,ATHLETICS,0,5,5,6,1,VACANT,SALVATION,long,resources/sound/prac_trials/practice_cue6.mp3,5f95a3272d19504163e83e70,37,Female,Right handed,2021-07-26_20h36.53.930,MA Experiment 2,2021.1.2,Win32,60.08893162,,,,,,,,,,
1.5592,response_2,longFoil,TEMPLE,SAXOPHONE,0,6,6,8,1,DAGGER,EMPHASIS,long,resources/sound/prac_trials/practice_cue8.mp3,5f95a3272d19504163e83e70,37,Female,Right handed,2021-07-26_20h36.53.930,MA Experiment 2,2021.1.2,Win32,60.08893162,,,,,,,,,,
1.2432,response_2,longFoil,MEASLES,CANDLELIGHT,0,7,7,7,1,BUCKLE,WALLABY,long,resources/sound/prac_trials/practice_cue_human7.mp3,5f95a3272d19504163e83e70,37,Female,Right handed,2021-07-26_20h36.53.930,MA Experiment 2,2021.1.2,Win32,60.08893162,,,,,,,,,,
1.1671,response_2,longValid,SHOULDER,APPLIANCE,0,8,8,0,1,AARDVARK,FALLACY,short,resources/sound/prac_trials/practice_cue0.mp3,5f95a3272d19504163e83e70,37,Female,Right handed,2021-07-26_20h36.53.930,MA Experiment 2,2021.1.2,Win32,60.08893162,,,,,,,,,,
1.201,response_2,longValid,HARBOUR,CATHEDRAL,0,9,9,11,1,KETCHUP,GONDOLA,long,resources/sound/prac_trials/practice_cue_human11.mp3,5f95a3272d19504163e83e70,37,Female,Right handed,2021-07-26_20h36.53.930,MA Experiment 2,2021.1.2,Win32,60.08893162,,,,,,,,,,
2.4893,response_2,longFoil,FERTILE,TEMPERATURE,0,10,10,2,1,RECENT,TOBACCO,short,resources/sound/prac_trials/practice_cue2.mp3,5f95a3272d19504163e83e70,37,Female,Right handed,2021-07-26_20h36.53.930,MA Experiment 2,2021.1.2,Win32,60.08893162,,,,,,,,,,
1.8088,response_1,shortValid,HAMMER,INJURY,0,11,11,10,1,SAFFRON,JAVELIN,long,resources/sound/prac_trials/practice_cue10.mp3,5f95a3272d19504163e83e70,37,Female,Right handed,2021-07-26_20h36.53.930,MA Experiment 2,2021.1.2,Win32,60.08893162,,,,,,,,,,
1.1103,response_2,longValid,DANCER,CLARINET,,,,,,BRAINSTORM,GREEN NEEDLE,long,resources/sound/trials/audio_stim_original.mp3,5f95a3272d19504163e83e70,37,Female,Right handed,2021-07-26_20h36.53.930,MA Experiment 2,2021.1.2,Win32,60.08893162,0,0,0,33,1,,,,,
2.0857,response_1,shortValid,SULPHUR,ALCOHOL,,,,,,PAINTER,VEHICLE,long,resources/sound/trials/audio_stim_human47.mp3,5f95a3272d19504163e83e70,37,Female,Right handed,2021-07-26_20h36.53.930,MA Experiment 2,2021.1.2,Win32,60.08893162,0,1,1,28,1,,,,,
1.5037,response_1,longFoil,PERSON,OXYGEN,,,,,,RUBBER,PROPERTY,short,resources/sound/trials/audio_stim_human0.mp3,5f95a3272d19504163e83e70,37,Female,Right handed,2021-07-26_20h36.53.930,MA Experiment 2,2021.1.2,Win32,60.08893162,0,2,2,12,1,,,,,
1.0267,response_2,,DIAL,HEADQUARTERS,,,,,,HOBBY,COLONY,short,resources/sound/catchTrials/audio_control_comp_project04.mp3,5f95a3272d19504163e83e70,37,Female,Right handed,2021-07-26_20h36.53.930,MA Experiment 2,2021.1.2,Win32,60.08893162,,,,,,0,5,5,2,1
3.0032,response_2,shortFoil,PIPING,RETAILER,,,,,,CONCRETE,ENEMY,short,resources/sound/trials/audio_stim_human67.mp3,5f95a3272d19504163e83e70,37,Female,Right handed,2021-07-26_20h36.53.930,MA Experiment 2,2021.1.2,Win32,60.08893162,0,3,3,10,1,,,,,
1.4936,response_1,shortValid,VAPOUR,POLICEMAN,,,,,,RECEIPT,LIMOUSINE,long,resources/sound/trials/audio_stim_comp40.mp3,5f95a3272d19504163e83e70,37,Female,Right handed,2021-07-26_20h36.53.930,MA Experiment 2,2021.1.2,Win32,60.08893162,0,4,4,19,1,,,,,
1.2634,response_1,longFoil,DIVING,PROJECTOR,,,,,,HARDWARE,OVERCOAT,short,resources/sound/trials/audio_stim_human35.mp3,5f95a3272d19504163e83e70,37,Female,Right handed,2021-07-26_20h36.53.930,MA Experiment 2,2021.1.2,Win32,60.08893162,0,5,5,8,1,,,,,
0.9236,response_1,shortValid,ANCHOR,CAMERA,,,,,,RUBBER,PROPERTY,long,resources/sound/trials/audio_stim_human0.mp3,5f95a3272d19504163e83e70,37,Female,Right handed,2021-07-26_20h36.53.930,MA Experiment 2,2021.1.2,Win32,60.08893162,0,6,6,29,1,,,,,
1.035,response_2,,CHIPMUNK,ANTIQUE,,,,,,SPINACH,APRICOT,short,resources/sound/catchTrials/audio_control_comp_project18.mp3,5f95a3272d19504163e83e70,37,Female,Right handed,2021-07-26_20h36.53.930,MA Experiment 2,2021.1.2,Win32,60.08893162,,,,,,0,8,8,5,1
3.2297,response_1,longFoil,RABBI,OPENING,,,,,,ATHLETE,IVORY,short,resources/sound/trials/audio_stim_comp57.mp3,5f95a3272d19504163e83e70,37,Female,Right handed,2021-07-26_20h36.53.930,MA Experiment 2,2021.1.2,Win32,60.08893162,0,7,7,5,1,,,,,
1.7255,response_1,shortValid,MURDER,CROCODILE,,,,,,DRIZZLE,CARDINAL,long,resources/sound/trials/audio_stim_comp69.mp3,5f95a3272d19504163e83e70,37,Female,Right handed,2021-07-26_20h36.53.930,MA Experiment 2,2021.1.2,Win32,60.08893162,0,8,8,17,1,,,,,
2.6839,response_2,shortFoil,TUMBLE,ATTENDANT,,,,,,MINER,EMERALD,short,resources/sound/trials/audio_stim_human6.mp3,5f95a3272d19504163e83e70,37,Female,Right handed,2021-07-26_20h36.53.930,MA Experiment 2,2021.1.2,Win32,60.08893162,0,9,9,13,1,,,,,
1.769,response_2,shortValid,KERNEL,MINISTER,,,,,,WHISTLE,TREASURER,short,resources/sound/trials/audio_stim_comp12.mp3,5f95a3272d19504163e83e70,37,Female,Right handed,2021-07-26_20h36.53.930,MA Experiment 2,2021.1.2,Win32,60.08893162,0,10,10,3,1,,,,,
1.3354,response_2,,SEGMENT,HONEYMOON,,,,,,ICY,JITTERBUG,short,resources/sound/catchTrials/audio_control_comp_project08.mp3,5f95a3272d19504163e83e70,37,Female,Right handed,2021-07-26_20h36.53.930,MA Experiment 2,2021.1.2,Win32,60.08893162,,,,,,0,27,27,7,1
1.0509,response_2,shortValid,CANTEEN,MERCURY,,,,,,DAYLIGHT,MATERIAL,short,resources/sound/trials/audio_stim_human42.mp3,5f95a3272d19504163e83e70,37,Female,Right handed,2021-07-26_20h36.53.930,MA Experiment 2,2021.1.2,Win32,60.08893162,0,11,11,9,1,,,,,
2.2123,response_2,shortValid,FOREARM,CORRIDOR,,,,,,CONCRETE,ENEMY,long,resources/sound/trials/audio_stim_human67.mp3,5f95a3272d19504163e83e70,37,Female,Right handed,2021-07-26_20h36.53.930,MA Experiment 2,2021.1.2,Win32,60.08893162,0,12,12,27,1,,,,,
1.1334,response_2,longValid,RUSTY,SPECIALIST,,,,,,ROBBER,RATTLESNAKE,long,resources/sound/trials/audio_stim_human64.mp3,5f95a3272d19504163e83e70,37,Female,Right handed,2021-07-26_20h36.53.930,MA Experiment 2,2021.1.2,Win32,60.08893162,0,13,13,32,1,,,,,
0.8999,response_1,longFoil,SINGER,NEIGHBOURHOOD,,,,,,MINER,EMERALD,long,resources/sound/trials/audio_stim_human6.mp3,5f95a3272d19504163e83e70,37,Female,Right handed,2021-07-26_20h36.53.930,MA Experiment 2,2021.1.2,Win32,60.08893162,0,14,14,30,1,,,,,
1.2933,response_2,,PICTURE,MICROSCOPE,,,,,,BORDER,ALGEBRA,short,resources/sound/catchTrials/audio_control_comp_project00.mp3,5f95a3272d19504163e83e70,37,Female,Right handed,2021-07-26_20h36.53.930,MA Experiment 2,2021.1.2,Win32,60.08893162,,,,,,0,30,30,0,1
1.6122,response_1,longFoil,NURSERY,DIAMOND,,,,,,MINER,EMERALD,long,resources/sound/trials/audio_stim_comp6.mp3,5f95a3272d19504163e83e70,37,Female,Right handed,2021-07-26_20h36.53.930,MA Experiment 2,2021.1.2,Win32,60.08893162,0,15,15,18,1,,,,,
0.9334,response_2,longValid,VESSEL,UMBRELLA,,,,,,RECEIPT,LIMOUSINE,short,resources/sound/trials/audio_stim_comp40.mp3,5f95a3272d19504163e83e70,37,Female,Right handed,2021-07-26_20h36.53.930,MA Experiment 2,2021.1.2,Win32,60.08893162,0,16,16,2,1,,,,,
1.1735,response_1,shortValid,LIGHTNING,MOLECULE,,,,,,BRAINSTORM,GREEN NEEDLE,short,resources/sound/trials/audio_stim_original.mp3,5f95a3272d19504163e83e70,37,Female,Right handed,2021-07-26_20h36.53.930,MA Experiment 2,2021.1.2,Win32,60.08893162,0,17,17,16,1,,,,,
1.3663,response_1,shortFoil,KETTLE,MESSENGER,,,,,,HARDWARE,OVERCOAT,long,resources/sound/trials/audio_stim_human35.mp3,5f95a3272d19504163e83e70,37,Female,Right handed,2021-07-26_20h36.53.930,MA Experiment 2,2021.1.2,Win32,60.08893162,0,18,18,25,1,,,,,
1.1001,response_2,,HURDLE,VINEGAR,,,,,,SPINACH,APRICOT,long,resources/sound/catchTrials/audio_control_comp_project18.mp3,5f95a3272d19504163e83e70,37,Female,Right handed,2021-07-26_20h36.53.930,MA Experiment 2,2021.1.2,Win32,60.08893162,,,,,,0,18,18,21,1
0.8311,response_2,shortFoil,CIGAR,ADMIRAL,,,,,,DAYLIGHT,MATERIAL,long,resources/sound/trials/audio_stim_human42.mp3,5f95a3272d19504163e83e70,37,Female,Right handed,2021-07-26_20h36.53.930,MA Experiment 2,2021.1.2,Win32,60.08893162,0,19,19,26,1,,,,,
2.7543,response_1,shortFoil,KENNEL,ACROBAT,,,,,,PARTY,SANCTUARY,short,resources/sound/trials/audio_stim_human50.mp3,5f95a3272d19504163e83e70,37,Female,Right handed,2021-07-26_20h36.53.930,MA Experiment 2,2021.1.2,Win32,60.08893162,0,20,20,14,1,,,,,
1.0597,response_1,shortValid,DECOY,STRAWBERRY,,,,,,SACRED,GALAXY,short,resources/sound/trials/audio_stim_comp1.mp3,5f95a3272d19504163e83e70,37,Female,Right handed,2021-07-26_20h36.53.930,MA Experiment 2,2021.1.2,Win32,60.08893162,0,21,21,7,1,,,,,
1.1775,response_2,longValid,WINDOW,DESTROYER,,,,,,MARBLE,CUSTOMER,long,resources/sound/trials/audio_stim_comp65.mp3,5f95a3272d19504163e83e70,37,Female,Right handed,2021-07-26_20h36.53.930,MA Experiment 2,2021.1.2,Win32,60.08893162,0,22,22,21,1,,,,,
1.1343,response_2,,JURY,CARNATION,,,,,,IRIS,VIOLIN,short,resources/sound/catchTrials/audio_control_human_project12.mp3,5f95a3272d19504163e83e70,37,Female,Right handed,2021-07-26_20h36.53.930,MA Experiment 2,2021.1.2,Win32,60.08893162,,,,,,0,1,1,8,1
1.4123,response_2,shortFoil,PATIENT,COMMITTEE,,,,,,WORKER,VISITOR,long,resources/sound/trials/audio_stim_comp17.mp3,5f95a3272d19504163e83e70,37,Female,Right handed,2021-07-26_20h36.53.930,MA Experiment 2,2021.1.2,Win32,60.08893162,0,23,23,23,1,,,,,
1.335,response_2,shortFoil,NOVEL,ABDOMEN,,,,,,MARBLE,CUSTOMER,short,resources/sound/trials/audio_stim_comp65.mp3,5f95a3272d19504163e83e70,37,Female,Right handed,2021-07-26_20h36.53.930,MA Experiment 2,2021.1.2,Win32,60.08893162,0,24,24,4,1,,,,,
1.2786,response_1,longValid,STATION,GORILLA,,,,,,DRIZZLE,CARDINAL,short,resources/sound/trials/audio_stim_comp69.mp3,5f95a3272d19504163e83e70,37,Female,Right handed,2021-07-26_20h36.53.930,MA Experiment 2,2021.1.2,Win32,60.08893162,0,25,25,0,1,,,,,
1.2515,response_1,longFoil,DUEL,INSTITUTE,,,,,,PARTY,SANCTUARY,long,resources/sound/trials/audio_stim_human50.mp3,5f95a3272d19504163e83e70,37,Female,Right handed,2021-07-26_20h36.53.930,MA Experiment 2,2021.1.2,Win32,60.08893162,0,26,26,31,1,,,,,
1.0321,response_2,,TWEEZER,PROFESSOR,,,,,,IRIS,VIOLIN,long,resources/sound/catchTrials/audio_control_human_project12.mp3,5f95a3272d19504163e83e70,37,Female,Right handed,2021-07-26_20h36.53.930,MA Experiment 2,2021.1.2,Win32,60.08893162,,,,,,0,20,20,24,1
1.4832,response_1,longValid,WIRE,HURRICANE,,,,,,MINER,EMERALD,short,resources/sound/trials/audio_stim_comp6.mp3,5f95a3272d19504163e83e70,37,Female,Right handed,2021-07-26_20h36.53.930,MA Experiment 2,2021.1.2,Win32,60.08893162,0,27,27,1,1,,,,,
1.0891,response_1,shortValid,WRITING,FAMILY,,,,,,WHISTLE,TREASURER,long,resources/sound/trials/audio_stim_comp12.mp3,5f95a3272d19504163e83e70,37,Female,Right handed,2021-07-26_20h36.53.930,MA Experiment 2,2021.1.2,Win32,60.08893162,0,28,28,20,1,,,,,
0.8381,response_1,shortFoil,ACRE,FIREWOOD,,,,,,ATHLETE,IVORY,long,resources/sound/trials/audio_stim_comp57.mp3,5f95a3272d19504163e83e70,37,Female,Right handed,2021-07-26_20h36.53.930,MA Experiment 2,2021.1.2,Win32,60.08893162,0,29,29,22,1,,,,,
3.7775,response_1,longFoil,MUSCLE,AMBULANCE,,,,,,PAINTER,VEHICLE,short,resources/sound/trials/audio_stim_human47.mp3,5f95a3272d19504163e83e70,37,Female,Right handed,2021-07-26_20h36.53.930,MA Experiment 2,2021.1.2,Win32,60.08893162,0,30,30,11,1,,,,,
1.5684,response_2,,NATIVE,ENVELOPE,,,,,,JOURNAL,ROBBERY,long,resources/sound/catchTrials/audio_control_human_project02.mp3,5f95a3272d19504163e83e70,37,Female,Right handed,2021-07-26_20h36.53.930,MA Experiment 2,2021.1.2,Win32,60.08893162,,,,,,0,25,25,29,1
0.8689,response_2,longValid,BUTTER,GALLERY,,,,,,SACRED,GALAXY,long,resources/sound/trials/audio_stim_comp1.mp3,5f95a3272d19504163e83e70,37,Female,Right handed,2021-07-26_20h36.53.930,MA Experiment 2,2021.1.2,Win32,60.08893162,0,31,31,24,1,,,,,
1.1375,response_2,shortValid,MURAL,GOVERNMENT,,,,,,ROBBER,RATTLESNAKE,short,resources/sound/trials/audio_stim_human64.mp3,5f95a3272d19504163e83e70,37,Female,Right handed,2021-07-26_20h36.53.930,MA Experiment 2,2021.1.2,Win32,60.08893162,0,32,32,15,1,,,,,
0.9752,response_2,shortFoil,GRADUATE,CONVENTION,,,,,,WORKER,VISITOR,short,resources/sound/trials/audio_stim_comp17.mp3,5f95a3272d19504163e83e70,37,Female,Right handed,2021-07-26_20h36.53.930,MA Experiment 2,2021.1.2,Win32,60.08893162,0,33,33,6,1,,,,,
1.4475,response_1,longFoil,FATHER,FACTORY,,,,,,WHISTLE,TREASURER,short,resources/sound/trials/audio_stim_comp12.mp3,5f95a3272d19504163e83e70,37,Female,Right handed,2021-07-26_20h36.53.930,MA Experiment 2,2021.1.2,Win32,60.08893162,1,0,34,3,1,,,,,
1.6877,response_1,shortValid,VILLAGE,ENAMEL,,,,,,MINER,EMERALD,short,resources/sound/trials/audio_stim_comp6.mp3,5f95a3272d19504163e83e70,37,Female,Right handed,2021-07-26_20h36.53.930,MA Experiment 2,2021.1.2,Win32,60.08893162,1,1,35,1,1,,,,,
1.1321,response_2,longValid,CRYSTAL,PHOTOGRAPH,,,,,,HARDWARE,OVERCOAT,short,resources/sound/trials/audio_stim_human35.mp3,5f95a3272d19504163e83e70,37,Female,Right handed,2021-07-26_20h36.53.930,MA Experiment 2,2021.1.2,Win32,60.08893162,1,2,36,8,1,,,,,
1.2444,response_2,,LIQUID,CABINET,,,,,,CORNER,ENGINEER,short,resources/sound/catchTrials/audio_control_comp_project14.mp3,5f95a3272d19504163e83e70,37,Female,Right handed,2021-07-26_20h36.53.930,MA Experiment 2,2021.1.2,Win32,60.08893162,,,,,,0,17,17,1,1
1.7703,response_2,longFoil,NECKLACE,LECTURER,,,,,,WORKER,VISITOR,long,resources/sound/trials/audio_stim_comp17.mp3,5f95a3272d19504163e83e70,37,Female,Right handed,2021-07-26_20h36.53.930,MA Experiment 2,2021.1.2,Win32,60.08893162,1,3,37,23,1,,,,,
1.13,response_1,longFoil,EVENING,SETTLEMENT,,,,,,MINER,EMERALD,short,resources/sound/trials/audio_stim_human6.mp3,5f95a3272d19504163e83e70,37,Female,Right handed,2021-07-26_20h36.53.930,MA Experiment 2,2021.1.2,Win32,60.08893162,1,4,38,13,1,,,,,
0.9626,response_1,shortValid,OFFICE,DISSECTION,,,,,,SACRED,GALAXY,long,resources/sound/trials/audio_stim_comp1.mp3,5f95a3272d19504163e83e70,37,Female,Right handed,2021-07-26_20h36.53.930,MA Experiment 2,2021.1.2,Win32,60.08893162,1,5,39,24,1,,,,,
1.2083,response_2,shortValid,SCOOTER,ASBESTOS,,,,,,ATHLETE,IVORY,short,resources/sound/trials/audio_stim_comp57.mp3,5f95a3272d19504163e83e70,37,Female,Right handed,2021-07-26_20h36.53.930,MA Experiment 2,2021.1.2,Win32,60.08893162,1,6,40,5,1,,,,,
1.6296,response_2,,BURNER,GRASSHOPPER,,,,,,NAVY,RECTANGLE,long,resources/sound/catchTrials/audio_control_comp_project06.mp3,5f95a3272d19504163e83e70,37,Female,Right handed,2021-07-26_20h36.53.930,MA Experiment 2,2021.1.2,Win32,60.08893162,,,,,,0,6,6,22,1
1.327,response_2,longValid,UNCLE,MECHANIC,,,,,,MARBLE,CUSTOMER,short,resources/sound/trials/audio_stim_comp65.mp3,5f95a3272d19504163e83e70,37,Female,Right handed,2021-07-26_20h36.53.930,MA Experiment 2,2021.1.2,Win32,60.08893162,1,7,41,4,1,,,,,
1.5773,response_1,longValid,EARTHWORM,HEROIN,,,,,,PAINTER,VEHICLE,short,resources/sound/trials/audio_stim_human47.mp3,5f95a3272d19504163e83e70,37,Female,Right handed,2021-07-26_20h36.53.930,MA Experiment 2,2021.1.2,Win32,60.08893162,1,8,42,11,1,,,,,
1.4792,response_2,longFoil,BISHOP,INTERVIEW,,,,,,DAYLIGHT,MATERIAL,long,resources/sound/trials/audio_stim_human42.mp3,5f95a3272d19504163e83e70,37,Female,Right handed,2021-07-26_20h36.53.930,MA Experiment 2,2021.1.2,Win32,60.08893162,1,9,43,26,1,,,,,
1.2394,response_2,shortValid,TORTURE,GINGERBREAD,,,,,,MARBLE,CUSTOMER,long,resources/sound/trials/audio_stim_comp65.mp3,5f95a3272d19504163e83e70,37,Female,Right handed,2021-07-26_20h36.53.930,MA Experiment 2,2021.1.2,Win32,60.08893162,1,10,44,21,1,,,,,
1.3884,response_2,,PODIUM,ORNAMENT,,,,,,JOURNAL,ROBBERY,short,resources/sound/catchTrials/audio_control_human_project02.mp3,5f95a3272d19504163e83e70,37,Female,Right handed,2021-07-26_20h36.53.930,MA Experiment 2,2021.1.2,Win32,60.08893162,,,,,,0,19,19,13,1
1.1458,response_2,longFoil,CEREAL,CINNAMON,,,,,,WORKER,VISITOR,short,resources/sound/trials/audio_stim_comp17.mp3,5f95a3272d19504163e83e70,37,Female,Right handed,2021-07-26_20h36.53.930,MA Experiment 2,2021.1.2,Win32,60.08893162,1,11,45,6,1,,,,,
2.4785,response_1,shortFoil,NAPKIN,POLIO,,,,,,RECEIPT,LIMOUSINE,short,resources/sound/trials/audio_stim_comp40.mp3,5f95a3272d19504163e83e70,37,Female,Right handed,2021-07-26_20h36.53.930,MA Experiment 2,2021.1.2,Win32,60.08893162,1,12,46,2,1,,,,,
0.8831,response_2,longFoil,PRINCESS,FISHERMAN,,,,,,RECEIPT,LIMOUSINE,long,resources/sound/trials/audio_stim_comp40.mp3,5f95a3272d19504163e83e70,37,Female,Right handed,2021-07-26_20h36.53.930,MA Experiment 2,2021.1.2,Win32,60.08893162,1,13,47,19,1,,,,,
0.9947,response_2,shortValid,SHEEPSKIN,CHOCOLATE,,,,,,MINER,EMERALD,long,resources/sound/trials/audio_stim_human6.mp3,5f95a3272d19504163e83e70,37,Female,Right handed,2021-07-26_20h36.53.930,MA Experiment 2,2021.1.2,Win32,60.08893162,1,14,48,30,1,,,,,
1.145,response_2,,NEIGHBOUR,BUTTERFLY,,,,,,ICY,JITTERBUG,long,resources/sound/catchTrials/audio_control_comp_project08.mp3,5f95a3272d19504163e83e70,37,Female,Right handed,2021-07-26_20h36.53.930,MA Experiment 2,2021.1.2,Win32,60.08893162,,,,,,0,2,2,23,1
1.1667,response_1,longValid,WAFER,AMMONIA,,,,,,ATHLETE,IVORY,long,resources/sound/trials/audio_stim_comp57.mp3,5f95a3272d19504163e83e70,37,Female,Right handed,2021-07-26_20h36.53.930,MA Experiment 2,2021.1.2,Win32,60.08893162,1,15,49,22,1,,,,,
1.1229,response_1,longValid,PIANO,MOSQUITO,,,,,,DRIZZLE,CARDINAL,long,resources/sound/trials/audio_stim_comp69.mp3,5f95a3272d19504163e83e70,37,Female,Right handed,2021-07-26_20h36.53.930,MA Experiment 2,2021.1.2,Win32,60.08893162,1,16,50,17,1,,,,,
2.5291,response_1,longFoil,MEDICINE,FURNITURE,,,,,,WHISTLE,TREASURER,long,resources/sound/trials/audio_stim_comp12.mp3,5f95a3272d19504163e83e70,37,Female,Right handed,2021-07-26_20h36.53.930,MA Experiment 2,2021.1.2,Win32,60.08893162,1,17,51,20,1,,,,,
1.8446,response_2,shortFoil,FAIRY,MONUMENT,,,,,,RUBBER,PROPERTY,long,resources/sound/trials/audio_stim_human0.mp3,5f95a3272d19504163e83e70,37,Female,Right handed,2021-07-26_20h36.53.930,MA Experiment 2,2021.1.2,Win32,60.08893162,1,18,52,29,1,,,,,
1.3605,response_2,,SOFA,BEVERAGE,,,,,,IRIS,VIOLIN,long,resources/sound/catchTrials/audio_control_comp_project12.mp3,5f95a3272d19504163e83e70,37,Female,Right handed,2021-07-26_20h36.53.930,MA Experiment 2,2021.1.2,Win32,60.08893162,,,,,,0,3,3,20,1
1.0466,response_2,longValid,WALRUS,MINERAL,,,,,,HARDWARE,OVERCOAT,long,resources/sound/trials/audio_stim_human35.mp3,5f95a3272d19504163e83e70,37,Female,Right handed,2021-07-26_20h36.53.930,MA Experiment 2,2021.1.2,Win32,60.08893162,1,19,53,25,1,,,,,
0.9211,response_2,longFoil,INVOICE,INDUSTRY,,,,,,DAYLIGHT,MATERIAL,short,resources/sound/trials/audio_stim_human42.mp3,5f95a3272d19504163e83e70,37,Female,Right handed,2021-07-26_20h36.53.930,MA Experiment 2,2021.1.2,Win32,60.08893162,1,20,54,9,1,,,,,
1.4836,response_2,longFoil,SADDLE,CAPITAL,,,,,,ROBBER,RATTLESNAKE,long,resources/sound/trials/audio_stim_human64.mp3,5f95a3272d19504163e83e70,37,Female,Right handed,2021-07-26_20h36.53.930,MA Experiment 2,2021.1.2,Win32,60.08893162,1,21,55,32,1,,,,,
1.2774,response_2,longFoil,INCOME,AVENUE,,,,,,PARTY,SANCTUARY,short,resources/sound/trials/audio_stim_human50.mp3,5f95a3272d19504163e83e70,37,Female,Right handed,2021-07-26_20h36.53.930,MA Experiment 2,2021.1.2,Win32,60.08893162,1,22,56,14,1,,,,,
1.084,response_2,,SODA,HANDKERCHIEF,,,,,,NAVY,RECTANGLE,short,resources/sound/catchTrials/audio_control_human_project06.mp3,5f95a3272d19504163e83e70,37,Female,Right handed,2021-07-26_20h36.53.930,MA Experiment 2,2021.1.2,Win32,60.08893162,,,,,,0,24,24,14,1
2.7979,response_2,longValid,LOBSTER,PROPELLER,,,,,,CONCRETE,ENEMY,long,resources/sound/trials/audio_stim_human67.mp3,5f95a3272d19504163e83e70,37,Female,Right handed,2021-07-26_20h36.53.930,MA Experiment 2,2021.1.2,Win32,60.08893162,1,23,57,27,1,,,,,
1.7477,response_2,longFoil,MOONLIGHT,INSTRUMENT,,,,,,SACRED,GALAXY,short,resources/sound/trials/audio_stim_comp1.mp3,5f95a3272d19504163e83e70,37,Female,Right handed,2021-07-26_20h36.53.930,MA Experiment 2,2021.1.2,Win32,60.08893162,1,24,58,7,1,,,,,
1.2611,response_1,longFoil,TRAITOR,CIGARETTE,,,,,,BRAINSTORM,GREEN NEEDLE,short,resources/sound/trials/audio_stim_original.mp3,5f95a3272d19504163e83e70,37,Female,Right handed,2021-07-26_20h36.53.930,MA Experiment 2,2021.1.2,Win32,60.08893162,1,25,59,16,1,,,,,
0.791,response_2,longFoil,MORNING,INFECTION,,,,,,ROBBER,RATTLESNAKE,short,resources/sound/trials/audio_stim_human64.mp3,5f95a3272d19504163e83e70,37,Female,Right handed,2021-07-26_20h36.53.930,MA Experiment 2,2021.1.2,Win32,60.08893162,1,26,60,15,1,,,,,
1.2968,response_2,,HAMSTER,MEDICINE,,,,,,NAVY,RECTANGLE,short,resources/sound/catchTrials/audio_control_comp_project06.mp3,5f95a3272d19504163e83e70,37,Female,Right handed,2021-07-26_20h36.53.930,MA Experiment 2,2021.1.2,Win32,60.08893162,,,,,,0,9,9,6,1
0.8032,response_1,longFoil,OLIVE,INSTRUCTOR,,,,,,BRAINSTORM,GREEN NEEDLE,long,resources/sound/trials/audio_stim_original.mp3,5f95a3272d19504163e83e70,37,Female,Right handed,2021-07-26_20h36.53.930,MA Experiment 2,2021.1.2,Win32,60.08893162,1,27,61,33,1,,,,,
1.3908,response_1,shortValid,MISTRESS,ICICLE,,,,,,CONCRETE,ENEMY,short,resources/sound/trials/audio_stim_human67.mp3,5f95a3272d19504163e83e70,37,Female,Right handed,2021-07-26_20h36.53.930,MA Experiment 2,2021.1.2,Win32,60.08893162,1,28,62,10,1,,,,,
2.2651,response_1,shortFoil,BERRY,CITIZEN,,,,,,MINER,EMERALD,long,resources/sound/trials/audio_stim_comp6.mp3,5f95a3272d19504163e83e70,37,Female,Right handed,2021-07-26_20h36.53.930,MA Experiment 2,2021.1.2,Win32,60.08893162,1,29,63,18,1,,,,,
1.3535,response_2,longValid,CAPTAIN,EMULSION,,,,,,PARTY,SANCTUARY,long,resources/sound/trials/audio_stim_human50.mp3,5f95a3272d19504163e83e70,37,Female,Right handed,2021-07-26_20h36.53.930,MA Experiment 2,2021.1.2,Win32,60.08893162,1,30,64,31,1,,,,,
1.2731,response_1,,LEADER,HOSPITAL,,,,,,JUGGLER,DANDELION,short,resources/sound/catchTrials/audio_control_human_project09.mp3,5f95a3272d19504163e83e70,37,Female,Right handed,2021-07-26_20h36.53.930,MA Experiment 2,2021.1.2,Win32,60.08893162,,,,,,0,21,21,15,1
1.3873,response_1,shortFoil,POLO,PHYSICIAN,,,,,,DRIZZLE,CARDINAL,short,resources/sound/trials/audio_stim_comp69.mp3,5f95a3272d19504163e83e70,37,Female,Right handed,2021-07-26_20h36.53.930,MA Experiment 2,2021.1.2,Win32,60.08893162,1,31,65,0,1,,,,,
3.1472,response_2,longValid,CURFEW,REFEREE,,,,,,PAINTER,VEHICLE,long,resources/sound/trials/audio_stim_human47.mp3,5f95a3272d19504163e83e70,37,Female,Right handed,2021-07-26_20h36.53.930,MA Experiment 2,2021.1.2,Win32,60.08893162,1,32,66,28,1,,,,,
1.3445,response_2,longValid,FEVER,ALPHABET,,,,,,RUBBER,PROPERTY,short,resources/sound/trials/audio_stim_human0.mp3,5f95a3272d19504163e83e70,37,Female,Right handed,2021-07-26_20h36.53.930,MA Experiment 2,2021.1.2,Win32,60.08893162,1,33,67,12,1,,,,,
1.5023,response_1,shortFoil,VALLEY,GYMNASTICS,,,,,,PAINTER,VEHICLE,short,resources/sound/trials/audio_stim_human47.mp3,5f95a3272d19504163e83e70,37,Female,Right handed,2021-07-26_20h36.53.930,MA Experiment 2,2021.1.2,Win32,60.08893162,2,0,68,11,1,,,,,
1.1704,response_2,shortFoil,RUSTY,NEIGHBOURHOOD,,,,,,SACRED,GALAXY,long,resources/sound/trials/audio_stim_comp1.mp3,5f95a3272d19504163e83e70,37,Female,Right handed,2021-07-26_20h36.53.930,MA Experiment 2,2021.1.2,Win32,60.08893162,2,1,69,24,1,,,,,
1.1711,response_2,longValid,DWELLER,HEROIN,,,,,,DAYLIGHT,MATERIAL,long,resources/sound/trials/audio_stim_human42.mp3,5f95a3272d19504163e83e70,37,Female,Right handed,2021-07-26_20h36.53.930,MA Experiment 2,2021.1.2,Win32,60.08893162,2,2,70,26,1,,,,,
1.6879,response_2,,DANCER,SAXOPHONE,,,,,,CORNER,ENGINEER,long,resources/sound/catchTrials/audio_control_human_project14.mp3,5f95a3272d19504163e83e70,37,Female,Right handed,2021-07-26_20h36.53.930,MA Experiment 2,2021.1.2,Win32,60.08893162,,,,,,0,31,31,26,1
1.0517,response_2,shortValid,VAPOUR,FIREWOOD,,,,,,HARDWARE,OVERCOAT,short,resources/sound/trials/audio_stim_human35.mp3,5f95a3272d19504163e83e70,37,Female,Right handed,2021-07-26_20h36.53.930,MA Experiment 2,2021.1.2,Win32,60.08893162,2,3,71,8,1,,,,,
1.5975,response_1,longFoil,BURNER,MEDICINE,,,,,,PAINTER,VEHICLE,long,resources/sound/trials/audio_stim_human47.mp3,5f95a3272d19504163e83e70,37,Female,Right handed,2021-07-26_20h36.53.930,MA Experiment 2,2021.1.2,Win32,60.08893162,2,4,72,28,1,,,,,
1.2296,response_1,shortValid,VALLEY,HURRICANE,,,,,,BRAINSTORM,GREEN NEEDLE,long,resources/sound/trials/audio_stim_original.mp3,5f95a3272d19504163e83e70,37,Female,Right handed,2021-07-26_20h36.53.930,MA Experiment 2,2021.1.2,Win32,60.08893162,2,5,73,33,1,,,,,
1.3692,response_1,longFoil,GRADUATE,FISHERMAN,,,,,,MARBLE,CUSTOMER,long,resources/sound/trials/audio_stim_comp65.mp3,5f95a3272d19504163e83e70,37,Female,Right handed,2021-07-26_20h36.53.930,MA Experiment 2,2021.1.2,Win32,60.08893162,2,6,74,21,1,,,,,
1.3898,response_1,,SINGER,MINERAL,,,,,,POISON,REVOLVER,short,resources/sound/catchTrials/audio_control_human_project01.mp3,5f95a3272d19504163e83e70,37,Female,Right handed,2021-07-26_20h36.53.930,MA Experiment 2,2021.1.2,Win32,60.08893162,,,,,,0,12,12,9,1
1.0621,response_1,longFoil,STATION,MESSENGER,,,,,,MINER,EMERALD,short,resources/sound/trials/audio_stim_comp6.mp3,5f95a3272d19504163e83e70,37,Female,Right handed,2021-07-26_20h36.53.930,MA Experiment 2,2021.1.2,Win32,60.08893162,2,7,75,1,1,,,,,
2.178,response_2,shortValid,PICTURE,GORILLA,,,,,,HARDWARE,OVERCOAT,long,resources/sound/trials/audio_stim_human35.mp3,5f95a3272d19504163e83e70,37,Female,Right handed,2021-07-26_20h36.53.930,MA Experiment 2,2021.1.2,Win32,60.08893162,2,8,76,25,1,,,,,
1.2323,response_2,longValid,ACRE,HOSPITAL,,,,,,RUBBER,PROPERTY,long,resources/sound/trials/audio_stim_human0.mp3,5f95a3272d19504163e83e70,37,Female,Right handed,2021-07-26_20h36.53.930,MA Experiment 2,2021.1.2,Win32,60.08893162,2,9,77,29,1,,,,,
1.6666,response_1,longFoil,CANTEEN,MONUMENT,,,,,,DRIZZLE,CARDINAL,short,resources/sound/trials/audio_stim_comp69.mp3,5f95a3272d19504163e83e70,37,Female,Right handed,2021-07-26_20h36.53.930,MA Experiment 2,2021.1.2,Win32,60.08893162,2,10,78,0,1,,,,,
1.5113,response_1,,NEIGHBOUR,HANDKERCHIEF,,,,,,VIOLET,LUBRICANT,short,resources/sound/catchTrials/audio_control_comp_project07.mp3,5f95a3272d19504163e83e70,37,Female,Right handed,2021-07-26_20h36.53.930,MA Experiment 2,2021.1.2,Win32,60.08893162,,,,,,0,10,10,3,1
1.7767,response_2,longValid,NAPKIN,LECTURER,,,,,,BRAINSTORM,GREEN NEEDLE,short,resources/sound/trials/audio_stim_original.mp3,5f95a3272d19504163e83e70,37,Female,Right handed,2021-07-26_20h36.53.930,MA Experiment 2,2021.1.2,Win32,60.08893162,2,11,79,16,1,,,,,
1.5457,response_1,shortFoil,KENNEL,JANITOR,,,,,,WHISTLE,TREASURER,short,resources/sound/trials/audio_stim_comp12.mp3,5f95a3272d19504163e83e70,37,Female,Right handed,2021-07-26_20h36.53.930,MA Experiment 2,2021.1.2,Win32,60.08893162,2,12,80,3,1,,,,,
1.1882,response_2,shortValid,TEMPLE,MOSQUITO,,,,,,RUBBER,PROPERTY,short,resources/sound/trials/audio_stim_human0.mp3,5f95a3272d19504163e83e70,37,Female,Right handed,2021-07-26_20h36.53.930,MA Experiment 2,2021.1.2,Win32,60.08893162,2,13,81,12,1,,,,,
2.2905,response_2,longFoil,UNCLE,AMBULANCE,,,,,,RECEIPT,LIMOUSINE,short,resources/sound/trials/audio_stim_comp40.mp3,5f95a3272d19504163e83e70,37,Female,Right handed,2021-07-26_20h36.53.930,MA Experiment 2,2021.1.2,Win32,60.08893162,2,14,82,2,1,,,,,
1.0934,response_1,,MEDICINE,PROFESSOR,,,,,,VIOLET,LUBRICANT,long,resources/sound/catchTrials/audio_control_comp_project07.mp3,5f95a3272d19504163e83e70,37,Female,Right handed,2021-07-26_20h36.53.930,MA Experiment 2,2021.1.2,Win32,60.08893162,,,,,,0,11,11,19,1
0.9778,response_1,longValid,ANCHOR,CITIZEN,,,,,,MINER,EMERALD,long,resources/sound/trials/audio_stim_human6.mp3,5f95a3272d19504163e83e70,37,Female,Right handed,2021-07-26_20h36.53.930,MA Experiment 2,2021.1.2,Win32,60.08893162,2,15,83,30,1,,,,,
1.0386,response_2,longValid,LIQUID,DISSECTION,,,,,,DAYLIGHT,MATERIAL,short,resources/sound/trials/audio_stim_human42.mp3,5f95a3272d19504163e83e70,37,Female,Right handed,2021-07-26_20h36.53.930,MA Experiment 2,2021.1.2,Win32,60.08893162,2,16,84,9,1,,,,,
1.0331,response_2,longValid,TWEEZER,MOLECULE,,,,,,ATHLETE,IVORY,short,resources/sound/trials/audio_stim_comp57.mp3,5f95a3272d19504163e83e70,37,Female,Right handed,2021-07-26_20h36.53.930,MA Experiment 2,2021.1.2,Win32,60.08893162,2,17,85,5,1,,,,,
0.9033,response_2,shortValid,RABBI,CATHEDRAL,,,,,,MINER,EMERALD,short,resources/sound/trials/audio_stim_human6.mp3,5f95a3272d19504163e83e70,37,Female,Right handed,2021-07-26_20h36.53.930,MA Experiment 2,2021.1.2,Win32,60.08893162,2,18,86,13,1,,,,,
1.1553,response_1,,DIAL,ICICLE,,,,,,JUGGLER,DANDELION,long,resources/sound/catchTrials/audio_control_human_project09.mp3,5f95a3272d19504163e83e70,37,Female,Right handed,2021-07-26_20h36.53.930,MA Experiment 2,2021.1.2,Win32,60.08893162,,,,,,0,4,4,31,1
1.4806,response_2,longFoil,PIANO,BUTTERFLY,,,,,,CONCRETE,ENEMY,short,resources/sound/trials/audio_stim_human67.mp3,5f95a3272d19504163e83e70,37,Female,Right handed,2021-07-26_20h36.53.930,MA Experiment 2,2021.1.2,Win32,60.08893162,2,19,87,10,1,,,,,
1.0064,response_2,longValid,SOFA,FACTORY,,,,,,WORKER,VISITOR,short,resources/sound/trials/audio_stim_comp17.mp3,5f95a3272d19504163e83e70,37,Female,Right handed,2021-07-26_20h36.53.930,MA Experiment 2,2021.1.2,Win32,60.08893162,2,20,88,6,1,,,,,
1.1637,response_2,shortValid,MURDER,REFEREE,,,,,,MARBLE,CUSTOMER,short,resources/sound/trials/audio_stim_comp65.mp3,5f95a3272d19504163e83e70,37,Female,Right handed,2021-07-26_20h36.53.930,MA Experiment 2,2021.1.2,Win32,60.08893162,2,21,89,4,1,,,,,
1.0127,response_1,longFoil,SEGMENT,GALLERY,,,,,,ATHLETE,IVORY,long,resources/sound/trials/audio_stim_comp57.mp3,5f95a3272d19504163e83e70,37,Female,Right handed,2021-07-26_20h36.53.930,MA Experiment 2,2021.1.2,Win32,60.08893162,2,22,90,22,1,,,,,
0.8804,response_2,,SHOULDER,DESTROYER,,,,,,IRIS,VIOLIN,short,resources/sound/catchTrials/audio_control_comp_project12.mp3,5f95a3272d19504163e83e70,37,Female,Right handed,2021-07-26_20h36.53.930,MA Experiment 2,2021.1.2,Win32,60.08893162,,,,,,0,14,14,4,1
1.0197,response_1,longValid,TORTURE,ASBESTOS,,,,,,SACRED,GALAXY,short,resources/sound/trials/audio_stim_comp1.mp3,5f95a3272d19504163e83e70,37,Female,Right handed,2021-07-26_20h36.53.930,MA Experiment 2,2021.1.2,Win32,60.08893162,2,23,91,7,1,,,,,
0.9813,response_1,longValid,NURSERY,ATTENDANT,,,,,,WHISTLE,TREASURER,long,resources/sound/trials/audio_stim_comp12.mp3,5f95a3272d19504163e83e70,37,Female,Right handed,2021-07-26_20h36.53.930,MA Experiment 2,2021.1.2,Win32,60.08893162,2,24,92,20,1,,,,,
0.9601,response_2,shortValid,MOONLIGHT,ANTIQUE,,,,,,PARTY,SANCTUARY,short,resources/sound/trials/audio_stim_human50.mp3,5f95a3272d19504163e83e70,37,Female,Right handed,2021-07-26_20h36.53.930,MA Experiment 2,2021.1.2,Win32,60.08893162,2,25,93,14,1,,,,,
1.7938,response_2,shortFoil,CURFEW,APPLIANCE,,,,,,PARTY,SANCTUARY,long,resources/sound/trials/audio_stim_human50.mp3,5f95a3272d19504163e83e70,37,Female,Right handed,2021-07-26_20h36.53.930,MA Experiment 2,2021.1.2,Win32,60.08893162,2,26,94,31,1,,,,,
1.2387,response_2,,TUMBLE,CABINET,,,,,,HOBBY,COLONY,short,resources/sound/catchTrials/audio_control_human_project04.mp3,5f95a3272d19504163e83e70,37,Female,Right handed,2021-07-26_20h36.53.930,MA Experiment 2,2021.1.2,Win32,60.08893162,,,,,,0,28,28,11,1
1.2456,response_2,longFoil,TRAITOR,GINGERBREAD,,,,,,CONCRETE,ENEMY,long,resources/sound/trials/audio_stim_human67.mp3,5f95a3272d19504163e83e70,37,Female,Right handed,2021-07-26_20h36.53.930,MA Experiment 2,2021.1.2,Win32,60.08893162,2,27,95,27,1,,,,,
1.0904,response_2,longValid,NOVEL,MECHANIC,,,,,,WORKER,VISITOR,long,resources/sound/trials/audio_stim_comp17.mp3,5f95a3272d19504163e83e70,37,Female,Right handed,2021-07-26_20h36.53.930,MA Experiment 2,2021.1.2,Win32,60.08893162,2,28,96,23,1,,,,,
1.0839,response_1,longValid,HAMSTER,POTATO,,,,,,MINER,EMERALD,long,resources/sound/trials/audio_stim_comp6.mp3,5f95a3272d19504163e83e70,37,Female,Right handed,2021-07-26_20h36.53.930,MA Experiment 2,2021.1.2,Win32,60.08893162,2,29,97,18,1,,,,,
0.9404,response_2,shortValid,BERRY,INJURY,,,,,,ROBBER,RATTLESNAKE,long,resources/sound/trials/audio_stim_human64.mp3,5f95a3272d19504163e83e70,37,Female,Right handed,2021-07-26_20h36.53.930,MA Experiment 2,2021.1.2,Win32,60.08893162,2,30,98,32,1,,,,,
1.2409,response_2,,FEVER,EMULSION,,,,,,BORDER,ALGEBRA,long,resources/sound/catchTrials/audio_control_comp_project00.mp3,5f95a3272d19504163e83e70,37,Female,Right handed,2021-07-26_20h36.53.930,MA Experiment 2,2021.1.2,Win32,60.08893162,,,,,,0,26,26,16,1
1.2882,response_2,longValid,PERSON,AVENUE,,,,,,RECEIPT,LIMOUSINE,long,resources/sound/trials/audio_stim_comp40.mp3,5f95a3272d19504163e83e70,37,Female,Right handed,2021-07-26_20h36.53.930,MA Experiment 2,2021.1.2,Win32,60.08893162,2,31,99,19,1,,,,,
1.4631,response_1,longFoil,KERNEL,MICROSCOPE,,,,,,DRIZZLE,CARDINAL,long,resources/sound/trials/audio_stim_comp69.mp3,5f95a3272d19504163e83e70,37,Female,Right handed,2021-07-26_20h36.53.930,MA Experiment 2,2021.1.2,Win32,60.08893162,2,32,100,17,1,,,,,
1.0138,response_2,longValid,CIGAR,CARNATION,,,,,,ROBBER,RATTLESNAKE,short,resources/sound/trials/audio_stim_human64.mp3,5f95a3272d19504163e83e70,37,Female,Right handed,2021-07-26_20h36.53.930,MA Experiment 2,2021.1.2,Win32,60.08893162,2,33,101,15,1,,,,,
1.0623,response_2,longValid,LIGHTNING,FAMILY,,,,,,PARTY,SANCTUARY,short,resources/sound/trials/audio_stim_human50.mp3,5f95a3272d19504163e83e70,37,Female,Right handed,2021-07-26_20h36.53.930,MA Experiment 2,2021.1.2,Win32,60.08893162,3,0,102,14,1,,,,,
3.0238,response_3,shortFoil,WINDOW,POLIO,,,,,,BRAINSTORM,GREEN NEEDLE,short,resources/sound/trials/audio_stim_original.mp3,5f95a3272d19504163e83e70,37,Female,Right handed,2021-07-26_20h36.53.930,MA Experiment 2,2021.1.2,Win32,60.08893162,3,1,103,16,1,,,,,
1.0618,response_2,shortValid,INVOICE,CANDLELIGHT,,,,,,PARTY,SANCTUARY,long,resources/sound/trials/audio_stim_human50.mp3,5f95a3272d19504163e83e70,37,Female,Right handed,2021-07-26_20h36.53.930,MA Experiment 2,2021.1.2,Win32,60.08893162,3,2,104,31,1,,,,,
0.9952,response_2,,LOBSTER,CLARINET,,,,,,CORNER,ENGINEER,long,resources/sound/catchTrials/audio_control_comp_project14.mp3,5f95a3272d19504163e83e70,37,Female,Right handed,2021-07-26_20h36.53.930,MA Experiment 2,2021.1.2,Win32,60.08893162,,,,,,0,13,13,17,1
1.268,response_1,shortValid,JURY,POLICEMAN,,,,,,MINER,EMERALD,long,resources/sound/trials/audio_stim_comp6.mp3,5f95a3272d19504163e83e70,37,Female,Right handed,2021-07-26_20h36.53.930,MA Experiment 2,2021.1.2,Win32,60.08893162,3,3,105,18,1,,,,,
1.977,response_1,shortFoil,BUTTER,CONVENTION,,,,,,PAINTER,VEHICLE,long,resources/sound/trials/audio_stim_human47.mp3,5f95a3272d19504163e83e70,37,Female,Right handed,2021-07-26_20h36.53.930,MA Experiment 2,2021.1.2,Win32,60.08893162,3,4,106,28,1,,,,,
1.0804,response_2,shortFoil,SULPHUR,ALCOHOL,,,,,,HARDWARE,OVERCOAT,short,resources/sound/trials/audio_stim_human35.mp3,5f95a3272d19504163e83e70,37,Female,Right handed,2021-07-26_20h36.53.930,MA Experiment 2,2021.1.2,Win32,60.08893162,3,5,107,8,1,,,,,
1.6729,response_1,shortFoil,SHEEPSKIN,FURNITURE,,,,,,SACRED,GALAXY,short,resources/sound/trials/audio_stim_comp1.mp3,5f95a3272d19504163e83e70,37,Female,Right handed,2021-07-26_20h36.53.930,MA Experiment 2,2021.1.2,Win32,60.08893162,3,6,108,7,1,,,,,
1.6278,response_2,,SCOOTER,MINISTER,,,,,,HOBBY,COLONY,long,resources/sound/catchTrials/audio_control_human_project04.mp3,5f95a3272d19504163e83e70,37,Female,Right handed,2021-07-26_20h36.53.930,MA Experiment 2,2021.1.2,Win32,60.08893162,,,,,,0,0,0,27,1
1.1844,response_1,shortFoil,VILLAGE,ORNAMENT,,,,,,DRIZZLE,CARDINAL,long,resources/sound/trials/audio_stim_comp69.mp3,5f95a3272d19504163e83e70,37,Female,Right handed,2021-07-26_20h36.53.930,MA Experiment 2,2021.1.2,Win32,60.08893162,3,7,109,17,1,,,,,
1.4047,response_1,shortFoil,HARBOUR,NEWSPAPER,,,,,,RUBBER,PROPERTY,short,resources/sound/trials/audio_stim_human0.mp3,5f95a3272d19504163e83e70,37,Female,Right handed,2021-07-26_20h36.53.930,MA Experiment 2,2021.1.2,Win32,60.08893162,3,8,110,12,1,,,,,
0.9796,response_2,longValid,WIRE,VINEGAR,,,,,,MINER,EMERALD,short,resources/sound/trials/audio_stim_human6.mp3,5f95a3272d19504163e83e70,37,Female,Right handed,2021-07-26_20h36.53.930,MA Experiment 2,2021.1.2,Win32,60.08893162,3,9,111,13,1,,,,,
0.8793,response_2,shortFoil,POLO,TANGERINE,,,,,,MINER,EMERALD,long,resources/sound/trials/audio_stim_human6.mp3,5f95a3272d19504163e83e70,37,Female,Right handed,2021-07-26_20h36.53.930,MA Experiment 2,2021.1.2,Win32,60.08893162,3,10,112,30,1,,,,,
1.4341,response_2,,HAMMER,SETTLEMENT,,,,,,HOBBY,COLONY,long,resources/sound/catchTrials/audio_control_comp_project04.mp3,5f95a3272d19504163e83e70,37,Female,Right handed,2021-07-26_20h36.53.930,MA Experiment 2,2021.1.2,Win32,60.08893162,,,,,,0,23,23,18,1
1.5772,response_2,shortFoil,SADDLE,INSTITUTE,,,,,,ATHLETE,IVORY,short,resources/sound/trials/audio_stim_comp57.mp3,5f95a3272d19504163e83e70,37,Female,Right handed,2021-07-26_20h36.53.930,MA Experiment 2,2021.1.2,Win32,60.08893162,3,11,113,5,1,,,,,
2.2352,response_1,shortFoil,PODIUM,CIGARETTE,,,,,,WHISTLE,TREASURER,long,resources/sound/trials/audio_stim_comp12.mp3,5f95a3272d19504163e83e70,37,Female,Right handed,2021-07-26_20h36.53.930,MA Experiment 2,2021.1.2,Win32,60.08893162,3,12,114,20,1,,,,,
1.7305,response_2,shortFoil,DECOY,CINNAMON,,,,,,RECEIPT,LIMOUSINE,long,resources/sound/trials/audio_stim_comp40.mp3,5f95a3272d19504163e83e70,37,Female,Right handed,2021-07-26_20h36.53.930,MA Experiment 2,2021.1.2,Win32,60.08893162,3,13,115,19,1,,,,,
1.3664,response_2,shortValid,HURDLE,RETAILER,,,,,,ATHLETE,IVORY,long,resources/sound/trials/audio_stim_comp57.mp3,5f95a3272d19504163e83e70,37,Female,Right handed,2021-07-26_20h36.53.930,MA Experiment 2,2021.1.2,Win32,60.08893162,3,14,116,22,1,,,,,
1.1275,response_2,,SODA,STRAWBERRY,,,,,,NAVY,RECTANGLE,long,resources/sound/catchTrials/audio_control_human_project06.mp3,5f95a3272d19504163e83e70,37,Female,Right handed,2021-07-26_20h36.53.930,MA Experiment 2,2021.1.2,Win32,60.08893162,,,,,,0,7,7,30,1
1.3893,response_2,shortFoil,EVENING,PHYSICIAN,,,,,,BRAINSTORM,GREEN NEEDLE,long,resources/sound/trials/audio_stim_original.mp3,5f95a3272d19504163e83e70,37,Female,Right handed,2021-07-26_20h36.53.930,MA Experiment 2,2021.1.2,Win32,60.08893162,3,15,117,33,1,,,,,
1.5106,response_1,shortFoil,MORNING,GYMNASTICS,,,,,,CONCRETE,ENEMY,long,resources/sound/trials/audio_stim_human67.mp3,5f95a3272d19504163e83e70,37,Female,Right handed,2021-07-26_20h36.53.930,MA Experiment 2,2021.1.2,Win32,60.08893162,3,16,118,27,1,,,,,
1.6939,response_2,shortValid,WAFER,INSTRUMENT,,,,,,WORKER,VISITOR,short,resources/sound/trials/audio_stim_comp17.mp3,5f95a3272d19504163e83e70,37,Female,Right handed,2021-07-26_20h36.53.930,MA Experiment 2,2021.1.2,Win32,60.08893162,3,17,119,6,1,,,,,
0.8776,response_2,longFoil,INCOME,OPENING,,,,,,HARDWARE,OVERCOAT,long,resources/sound/trials/audio_stim_human35.mp3,5f95a3272d19504163e83e70,37,Female,Right handed,2021-07-26_20h36.53.930,MA Experiment 2,2021.1.2,Win32,60.08893162,3,18,120,25,1,,,,,
1.0151,response_1,,PATIENT,INDUSTRY,,,,,,VIOLET,LUBRICANT,short,resources/sound/catchTrials/audio_control_human_project07.mp3,5f95a3272d19504163e83e70,37,Female,Right handed,2021-07-26_20h36.53.930,MA Experiment 2,2021.1.2,Win32,60.08893162,,,,,,0,22,22,12,1
0.8913,response_2,shortFoil,CABIN,HONEYMOON,,,,,,DAYLIGHT,MATERIAL,short,resources/sound/trials/audio_stim_human42.mp3,5f95a3272d19504163e83e70,37,Female,Right handed,2021-07-26_20h36.53.930,MA Experiment 2,2021.1.2,Win32,60.08893162,3,19,121,9,1,,,,,
1.4073,response_2,longFoil,MISTRESS,ABDOMEN,,,,,,RUBBER,PROPERTY,long,resources/sound/trials/audio_stim_human0.mp3,5f95a3272d19504163e83e70,37,Female,Right handed,2021-07-26_20h36.53.930,MA Experiment 2,2021.1.2,Win32,60.08893162,3,20,122,29,1,,,,,
1.4695,response_2,shortValid,FATHER,CHOCOLATE,,,,,,PAINTER,VEHICLE,short,resources/sound/trials/audio_stim_human47.mp3,5f95a3272d19504163e83e70,37,Female,Right handed,2021-07-26_20h36.53.930,MA Experiment 2,2021.1.2,Win32,60.08893162,3,21,123,11,1,,,,,
1.3981,response_1,longValid,VESSEL,PROPELLER,,,,,,WHISTLE,TREASURER,short,resources/sound/trials/audio_stim_comp12.mp3,5f95a3272d19504163e83e70,37,Female,Right handed,2021-07-26_20h36.53.930,MA Experiment 2,2021.1.2,Win32,60.08893162,3,22,124,3,1,,,,,
1.7667,response_2,,LEADER,BEVERAGE,,,,,,CORNER,ENGINEER,short,resources/sound/catchTrials/audio_control_human_project14.mp3,5f95a3272d19504163e83e70,37,Female,Right handed,2021-07-26_20h36.53.930,MA Experiment 2,2021.1.2,Win32,60.08893162,,,,,,0,15,15,10,1
0.8362,response_2,shortValid,DUEL,INFECTION,,,,,,DAYLIGHT,MATERIAL,long,resources/sound/trials/audio_stim_human42.mp3,5f95a3272d19504163e83e70,37,Female,Right handed,2021-07-26_20h36.53.930,MA Experiment 2,2021.1.2,Win32,60.08893162,3,23,125,26,1,,,,,
2.3411,response_1,longFoil,FAIRY,PROJECTOR,,,,,,SACRED,GALAXY,long,resources/sound/trials/audio_stim_comp1.mp3,5f95a3272d19504163e83e70,37,Female,Right handed,2021-07-26_20h36.53.930,MA Experiment 2,2021.1.2,Win32,60.08893162,3,24,126,24,1,,,,,
1.1703,response_2,shortFoil,CAPTAIN,COMMITTEE,,,,,,MARBLE,CUSTOMER,long,resources/sound/trials/audio_stim_comp65.mp3,5f95a3272d19504163e83e70,37,Female,Right handed,2021-07-26_20h36.53.930,MA Experiment 2,2021.1.2,Win32,60.08893162,3,25,127,21,1,,,,,
1.487,response_2,shortFoil,NECKLACE,INTERVIEW,,,,,,ROBBER,RATTLESNAKE,long,resources/sound/trials/audio_stim_human64.mp3,5f95a3272d19504163e83e70,37,Female,Right handed,2021-07-26_20h36.53.930,MA Experiment 2,2021.1.2,Win32,60.08893162,3,26,128,32,1,,,,,
1.3099,response_1,,EARTHWORM,MERCURY,,,,,,VIOLET,LUBRICANT,long,resources/sound/catchTrials/audio_control_human_project07.mp3,5f95a3272d19504163e83e70,37,Female,Right handed,2021-07-26_20h36.53.930,MA Experiment 2,2021.1.2,Win32,60.08893162,,,,,,0,16,16,28,1
1.9202,response_2,shortValid,PRINCESS,ADMIRAL,,,,,,RECEIPT,LIMOUSINE,short,resources/sound/trials/audio_stim_comp40.mp3,5f95a3272d19504163e83e70,37,Female,Right handed,2021-07-26_20h36.53.930,MA Experiment 2,2021.1.2,Win32,60.08893162,3,27,129,2,1,,,,,
1.0181,response_1,shortFoil,DOORWAY,HEADQUARTERS,,,,,,MINER,EMERALD,short,resources/sound/trials/audio_stim_comp6.mp3,5f95a3272d19504163e83e70,37,Female,Right handed,2021-07-26_20h36.53.930,MA Experiment 2,2021.1.2,Win32,60.08893162,3,28,130,1,1,,,,,
1.7455,response_2,longValid,WRITING,UMBRELLA,,,,,,CONCRETE,ENEMY,short,resources/sound/trials/audio_stim_human67.mp3,5f95a3272d19504163e83e70,37,Female,Right handed,2021-07-26_20h36.53.930,MA Experiment 2,2021.1.2,Win32,60.08893162,3,29,131,10,1,,,,,
1.1836,response_2,shortValid,MEASLES,CAMERA,,,,,,WORKER,VISITOR,long,resources/sound/trials/audio_stim_comp17.mp3,5f95a3272d19504163e83e70,37,Female,Right handed,2021-07-26_20h36.53.930,MA Experiment 2,2021.1.2,Win32,60.08893162,3,30,132,23,1,,,,,
1.3349,response_1,,STOCKING,SPECIALIST,,,,,,POISON,REVOLVER,long,resources/sound/catchTrials/audio_control_human_project01.mp3,5f95a3272d19504163e83e70,37,Female,Right handed,2021-07-26_20h36.53.930,MA Experiment 2,2021.1.2,Win32,60.08893162,,,,,,0,29,29,25,1
1.124,response_1,longFoil,WALRUS,LEMONADE,,,,,,MARBLE,CUSTOMER,short,resources/sound/trials/audio_stim_comp65.mp3,5f95a3272d19504163e83e70,37,Female,Right handed,2021-07-26_20h36.53.930,MA Experiment 2,2021.1.2,Win32,60.08893162,3,31,133,4,1,,,,,
1.6123,response_1,shortValid,FOREARM,ALPHABET,,,,,,DRIZZLE,CARDINAL,short,resources/sound/trials/audio_stim_comp69.mp3,5f95a3272d19504163e83e70,37,Female,Right handed,2021-07-26_20h36.53.930,MA Experiment 2,2021.1.2,Win32,60.08893162,3,32,134,0,1,,,,,
1.0814,response_2,shortFoil,OLIVE,OXYGEN,,,,,,ROBBER,RATTLESNAKE,short,resources/sound/trials/audio_stim_human64.mp3,5f95a3272d19504163e83e70,37,Female,Right handed,2021-07-26_20h36.53.930,MA Experiment 2,2021.1.2,Win32,60.08893162,3,33,135,15,1,,,,,
