response.time,response,cueTarget,rand_foil_1,rand_foil_2,prac_trials.thisRepN,prac_trials.thisTrialN,prac_trials.thisN,prac_trials.thisIndex,prac_trials.ran,word_1,word_2,cue,file_path,participant,age,gender,handedness,date,expName,psychopyVersion,OS,frameRate,trials.thisRepN,trials.thisTrialN,trials.thisN,trials.thisIndex,trials.ran,catchTrials.thisRepN,catchTrials.thisTrialN,catchTrials.thisN,catchTrials.thisIndex,catchTrials.ran
2.7175,response_2,shortFoil,KETTLE,BEVERAGE,0,0,0,7,1,BUCKLE,WALLABY,long,resources/sound/prac_trials/practice_cue_human7.mp3,60f9cfd807ab930c001820ce,33,Female,Right handed,2021-07-26_21h06.01.294,MA Experiment 2,2021.1.2,MacIntel,59.99880002,,,,,,,,,,
1.2937,response_1,longFoil,MUSCLE,AMBULANCE,0,1,1,10,1,SAFFRON,JAVELIN,long,resources/sound/prac_trials/practice_cue10.mp3,60f9cfd807ab930c001820ce,33,Female,Right handed,2021-07-26_21h06.01.294,MA Experiment 2,2021.1.2,MacIntel,59.99880002,,,,,,,,,,
1.4006,response_2,shortValid,ANCHOR,INSTRUMENT,0,2,2,4,1,FIZZY,ELECTRIC,short,resources/sound/prac_trials/practice_cue4.mp3,60f9cfd807ab930c001820ce,33,Female,Right handed,2021-07-26_21h06.01.294,MA Experiment 2,2021.1.2,MacIntel,59.99880002,,,,,,,,,,
1.6464,response_2,shortFoil,FOREARM,COMMITTEE,0,3,3,6,1,VACANT,SALVATION,long,resources/sound/prac_trials/practice_cue6.mp3,60f9cfd807ab930c001820ce,33,Female,Right handed,2021-07-26_21h06.01.294,MA Experiment 2,2021.1.2,MacIntel,59.99880002,,,,,,,,,,
1.4959,response_2,longFoil,CURFEW,HURRICANE,0,4,4,5,1,NONSENSE,OASIS,short,resources/sound/prac_trials/practice_cue_human5.mp3,60f9cfd807ab930c001820ce,33,Female,Right handed,2021-07-26_21h06.01.294,MA Experiment 2,2021.1.2,MacIntel,59.99880002,,,,,,,,,,
1.0007,response_1,longFoil,UNCLE,APPLIANCE,0,5,5,1,1,CABLE,REPUBLIC,short,resources/sound/prac_trials/practice_cue_human1.mp3,60f9cfd807ab930c001820ce,33,Female,Right handed,2021-07-26_21h06.01.294,MA Experiment 2,2021.1.2,MacIntel,59.99880002,,,,,,,,,,
1.8922,response_1,longFoil,SINGER,SETTLEMENT,0,6,6,9,1,GRUMPY,LABYRINTH,long,resources/sound/prac_trials/practice_cue_human9.mp3,60f9cfd807ab930c001820ce,33,Female,Right handed,2021-07-26_21h06.01.294,MA Experiment 2,2021.1.2,MacIntel,59.99880002,,,,,,,,,,
1.096,response_2,longValid,HURDLE,ATHLETICS,0,7,7,2,1,RECENT,TOBACCO,short,resources/sound/prac_trials/practice_cue2.mp3,60f9cfd807ab930c001820ce,33,Female,Right handed,2021-07-26_21h06.01.294,MA Experiment 2,2021.1.2,MacIntel,59.99880002,,,,,,,,,,
2.5998,response_1,longValid,MISTRESS,INFECTION,0,8,8,0,1,AARDVARK,FALLACY,short,resources/sound/prac_trials/practice_cue0.mp3,60f9cfd807ab930c001820ce,33,Female,Right handed,2021-07-26_21h06.01.294,MA Experiment 2,2021.1.2,MacIntel,59.99880002,,,,,,,,,,
1.3362,response_2,longFoil,CHIPMUNK,DIAMOND,0,9,9,3,1,EAGER,QUALIFY,short,resources/sound/prac_trials/practice_cue_human3.mp3,60f9cfd807ab930c001820ce,33,Female,Right handed,2021-07-26_21h06.01.294,MA Experiment 2,2021.1.2,MacIntel,59.99880002,,,,,,,,,,
1.0504,response_1,longValid,JURY,ADMIRAL,0,10,10,11,1,KETCHUP,GONDOLA,long,resources/sound/prac_trials/practice_cue_human11.mp3,60f9cfd807ab930c001820ce,33,Female,Right handed,2021-07-26_21h06.01.294,MA Experiment 2,2021.1.2,MacIntel,59.99880002,,,,,,,,,,
1.5091,response_1,longValid,FEVER,FURNITURE,0,11,11,8,1,DAGGER,EMPHASIS,long,resources/sound/prac_trials/practice_cue8.mp3,60f9cfd807ab930c001820ce,33,Female,Right handed,2021-07-26_21h06.01.294,MA Experiment 2,2021.1.2,MacIntel,59.99880002,,,,,,,,,,
1.1158,response_2,shortFoil,TRAITOR,GALLERY,,,,,,RECEIPT,LIMOUSINE,short,resources/sound/trials/audio_stim_comp40.mp3,60f9cfd807ab930c001820ce,33,Female,Right handed,2021-07-26_21h06.01.294,MA Experiment 2,2021.1.2,MacIntel,59.99880002,0,0,0,2,1,,,,,
1.482,response_2,shortValid,SHOULDER,CATHEDRAL,,,,,,CONCRETE,ENEMY,short,resources/sound/trials/audio_stim_human67.mp3,60f9cfd807ab930c001820ce,33,Female,Right handed,2021-07-26_21h06.01.294,MA Experiment 2,2021.1.2,MacIntel,59.99880002,0,1,1,10,1,,,,,
1.4715,response_2,shortFoil,SOFA,DISSECTION,,,,,,DAYLIGHT,MATERIAL,long,resources/sound/trials/audio_stim_human42.mp3,60f9cfd807ab930c001820ce,33,Female,Right handed,2021-07-26_21h06.01.294,MA Experiment 2,2021.1.2,MacIntel,59.99880002,0,2,2,26,1,,,,,
1.4644,response_2,,WAFER,ATTENDANT,,,,,,CORNER,ENGINEER,short,resources/sound/catchTrials/audio_control_comp_project14.mp3,60f9cfd807ab930c001820ce,33,Female,Right handed,2021-07-26_21h06.01.294,MA Experiment 2,2021.1.2,MacIntel,59.99880002,,,,,,0,26,26,1,1
1.3759,response_2,shortFoil,GIRDLE,LECTURER,,,,,,WORKER,VISITOR,short,resources/sound/trials/audio_stim_comp17.mp3,60f9cfd807ab930c001820ce,33,Female,Right handed,2021-07-26_21h06.01.294,MA Experiment 2,2021.1.2,MacIntel,59.99880002,0,3,3,6,1,,,,,
1.3164,response_1,shortFoil,PICTURE,BUTTERFLY,,,,,,ATHLETE,IVORY,short,resources/sound/trials/audio_stim_comp57.mp3,60f9cfd807ab930c001820ce,33,Female,Right handed,2021-07-26_21h06.01.294,MA Experiment 2,2021.1.2,MacIntel,59.99880002,0,4,4,5,1,,,,,
2.1924,response_1,shortFoil,MEDICINE,CLARINET,,,,,,MINER,EMERALD,short,resources/sound/trials/audio_stim_comp6.mp3,60f9cfd807ab930c001820ce,33,Female,Right handed,2021-07-26_21h06.01.294,MA Experiment 2,2021.1.2,MacIntel,59.99880002,0,5,5,1,1,,,,,
1.8994,response_1,longValid,NURSERY,POLIO,,,,,,MINER,EMERALD,long,resources/sound/trials/audio_stim_comp6.mp3,60f9cfd807ab930c001820ce,33,Female,Right handed,2021-07-26_21h06.01.294,MA Experiment 2,2021.1.2,MacIntel,59.99880002,0,6,6,18,1,,,,,
1.272,response_2,,SADDLE,HOSPITAL,,,,,,NAVY,RECTANGLE,short,resources/sound/catchTrials/audio_control_human_project06.mp3,60f9cfd807ab930c001820ce,33,Female,Right handed,2021-07-26_21h06.01.294,MA Experiment 2,2021.1.2,MacIntel,59.99880002,,,,,,0,13,13,14,1
1.093,response_1,shortValid,DECOY,NEWSPAPER,,,,,,HARDWARE,OVERCOAT,short,resources/sound/trials/audio_stim_human35.mp3,60f9cfd807ab930c001820ce,33,Female,Right handed,2021-07-26_21h06.01.294,MA Experiment 2,2021.1.2,MacIntel,59.99880002,0,7,7,8,1,,,,,
1.5229,response_1,shortValid,EARTHWORM,FIREWOOD,,,,,,HARDWARE,OVERCOAT,long,resources/sound/trials/audio_stim_human35.mp3,60f9cfd807ab930c001820ce,33,Female,Right handed,2021-07-26_21h06.01.294,MA Experiment 2,2021.1.2,MacIntel,59.99880002,0,8,8,25,1,,,,,
1.439,response_2,shortFoil,DIVING,CORRIDOR,,,,,,PAINTER,VEHICLE,long,resources/sound/trials/audio_stim_human47.mp3,60f9cfd807ab930c001820ce,33,Female,Right handed,2021-07-26_21h06.01.294,MA Experiment 2,2021.1.2,MacIntel,59.99880002,0,9,9,28,1,,,,,
1.8699,response_2,longFoil,NEIGHBOUR,ACROBAT,,,,,,CONCRETE,ENEMY,long,resources/sound/trials/audio_stim_human67.mp3,60f9cfd807ab930c001820ce,33,Female,Right handed,2021-07-26_21h06.01.294,MA Experiment 2,2021.1.2,MacIntel,59.99880002,0,10,10,27,1,,,,,
1.0391,response_1,,MEASLES,MECHANIC,,,,,,JUGGLER,DANDELION,short,resources/sound/catchTrials/audio_control_human_project09.mp3,60f9cfd807ab930c001820ce,33,Female,Right handed,2021-07-26_21h06.01.294,MA Experiment 2,2021.1.2,MacIntel,59.99880002,,,,,,0,30,30,15,1
1.6451,response_1,shortValid,LIQUID,CARNATION,,,,,,DRIZZLE,CARDINAL,short,resources/sound/trials/audio_stim_comp69.mp3,60f9cfd807ab930c001820ce,33,Female,Right handed,2021-07-26_21h06.01.294,MA Experiment 2,2021.1.2,MacIntel,59.99880002,0,11,11,0,1,,,,,
1.3987,response_2,shortFoil,HAMSTER,CAPITAL,,,,,,RUBBER,PROPERTY,long,resources/sound/trials/audio_stim_human0.mp3,60f9cfd807ab930c001820ce,33,Female,Right handed,2021-07-26_21h06.01.294,MA Experiment 2,2021.1.2,MacIntel,59.99880002,0,12,12,29,1,,,,,
2.3932,response_2,longFoil,CIGAR,POTATO,,,,,,BRAINSTORM,GREEN NEEDLE,short,resources/sound/trials/audio_stim_original.mp3,60f9cfd807ab930c001820ce,33,Female,Right handed,2021-07-26_21h06.01.294,MA Experiment 2,2021.1.2,MacIntel,59.99880002,0,13,13,16,1,,,,,
1.4073,response_2,shortFoil,DOORWAY,GOVERNMENT,,,,,,DRIZZLE,CARDINAL,long,resources/sound/trials/audio_stim_comp69.mp3,60f9cfd807ab930c001820ce,33,Female,Right handed,2021-07-26_21h06.01.294,MA Experiment 2,2021.1.2,MacIntel,59.99880002,0,14,14,17,1,,,,,
1.1607,response_2,,RABBI,MINERAL,,,,,,IRIS,VIOLIN,short,resources/sound/catchTrials/audio_control_human_project12.mp3,60f9cfd807ab930c001820ce,33,Female,Right handed,2021-07-26_21h06.01.294,MA Experiment 2,2021.1.2,MacIntel,59.99880002,,,,,,0,7,7,8,1
1.5905,response_2,longFoil,CAPTAIN,OXYGEN,,,,,,SACRED,GALAXY,long,resources/sound/trials/audio_stim_comp1.mp3,60f9cfd807ab930c001820ce,33,Female,Right handed,2021-07-26_21h06.01.294,MA Experiment 2,2021.1.2,MacIntel,59.99880002,0,15,15,24,1,,,,,
1.4028,response_2,longFoil,MOONLIGHT,MOLECULE,,,,,,WORKER,VISITOR,long,resources/sound/trials/audio_stim_comp17.mp3,60f9cfd807ab930c001820ce,33,Female,Right handed,2021-07-26_21h06.01.294,MA Experiment 2,2021.1.2,MacIntel,59.99880002,0,16,16,23,1,,,,,
1.1486,response_2,shortFoil,HARBOUR,ALPHABET,,,,,,RUBBER,PROPERTY,short,resources/sound/trials/audio_stim_human0.mp3,60f9cfd807ab930c001820ce,33,Female,Right handed,2021-07-26_21h06.01.294,MA Experiment 2,2021.1.2,MacIntel,59.99880002,0,17,17,12,1,,,,,
1.8115,response_2,shortFoil,VESSEL,MICROSCOPE,,,,,,RECEIPT,LIMOUSINE,long,resources/sound/trials/audio_stim_comp40.mp3,60f9cfd807ab930c001820ce,33,Female,Right handed,2021-07-26_21h06.01.294,MA Experiment 2,2021.1.2,MacIntel,59.99880002,0,18,18,19,1,,,,,
1.7771,response_1,,STOCKING,ANTIQUE,,,,,,POISON,REVOLVER,short,resources/sound/catchTrials/audio_control_human_project01.mp3,60f9cfd807ab930c001820ce,33,Female,Right handed,2021-07-26_21h06.01.294,MA Experiment 2,2021.1.2,MacIntel,59.99880002,,,,,,0,15,15,9,1
1.3039,response_2,shortFoil,BURNER,CROCODILE,,,,,,MARBLE,CUSTOMER,long,resources/sound/trials/audio_stim_comp65.mp3,60f9cfd807ab930c001820ce,33,Female,Right handed,2021-07-26_21h06.01.294,MA Experiment 2,2021.1.2,MacIntel,59.99880002,0,19,19,21,1,,,,,
1.4132,response_2,shortFoil,HAMMER,HANDKERCHIEF,,,,,,MINER,EMERALD,short,resources/sound/trials/audio_stim_human6.mp3,60f9cfd807ab930c001820ce,33,Female,Right handed,2021-07-26_21h06.01.294,MA Experiment 2,2021.1.2,MacIntel,59.99880002,0,20,20,13,1,,,,,
1.178,response_2,shortValid,NECKLACE,ORNAMENT,,,,,,PARTY,SANCTUARY,long,resources/sound/trials/audio_stim_human50.mp3,60f9cfd807ab930c001820ce,33,Female,Right handed,2021-07-26_21h06.01.294,MA Experiment 2,2021.1.2,MacIntel,59.99880002,0,21,21,31,1,,,,,
1.4474,response_1,longValid,CABIN,PHOTOGRAPH,,,,,,WHISTLE,TREASURER,short,resources/sound/trials/audio_stim_comp12.mp3,60f9cfd807ab930c001820ce,33,Female,Right handed,2021-07-26_21h06.01.294,MA Experiment 2,2021.1.2,MacIntel,59.99880002,0,22,22,3,1,,,,,
1.3364,response_1,,SODA,STRAWBERRY,,,,,,VIOLET,LUBRICANT,short,resources/sound/catchTrials/audio_control_human_project07.mp3,60f9cfd807ab930c001820ce,33,Female,Right handed,2021-07-26_21h06.01.294,MA Experiment 2,2021.1.2,MacIntel,59.99880002,,,,,,0,22,22,12,1
1.6412,response_1,shortValid,STATION,AVENUE,,,,,,BRAINSTORM,GREEN NEEDLE,long,resources/sound/trials/audio_stim_original.mp3,60f9cfd807ab930c001820ce,33,Female,Right handed,2021-07-26_21h06.01.294,MA Experiment 2,2021.1.2,MacIntel,59.99880002,0,23,23,33,1,,,,,
1.3032,response_1,longValid,KERNEL,GINGERBREAD,,,,,,ROBBER,RATTLESNAKE,short,resources/sound/trials/audio_stim_human64.mp3,60f9cfd807ab930c001820ce,33,Female,Right handed,2021-07-26_21h06.01.294,MA Experiment 2,2021.1.2,MacIntel,59.99880002,0,24,24,15,1,,,,,
1.2622,response_1,shortFoil,VILLAGE,MINISTER,,,,,,ATHLETE,IVORY,long,resources/sound/trials/audio_stim_comp57.mp3,60f9cfd807ab930c001820ce,33,Female,Right handed,2021-07-26_21h06.01.294,MA Experiment 2,2021.1.2,MacIntel,59.99880002,0,25,25,22,1,,,,,
1.7705,response_1,longFoil,MURAL,CONVENTION,,,,,,WHISTLE,TREASURER,long,resources/sound/trials/audio_stim_comp12.mp3,60f9cfd807ab930c001820ce,33,Female,Right handed,2021-07-26_21h06.01.294,MA Experiment 2,2021.1.2,MacIntel,59.99880002,0,26,26,20,1,,,,,
1.6407,response_1,,BISHOP,HEROIN,,,,,,VIOLET,LUBRICANT,long,resources/sound/catchTrials/audio_control_human_project07.mp3,60f9cfd807ab930c001820ce,33,Female,Right handed,2021-07-26_21h06.01.294,MA Experiment 2,2021.1.2,MacIntel,59.99880002,,,,,,0,20,20,28,1
1.2542,response_1,shortValid,SHEEPSKIN,PROFESSOR,,,,,,ROBBER,RATTLESNAKE,long,resources/sound/trials/audio_stim_human64.mp3,60f9cfd807ab930c001820ce,33,Female,Right handed,2021-07-26_21h06.01.294,MA Experiment 2,2021.1.2,MacIntel,59.99880002,0,27,27,32,1,,,,,
1.6123,response_2,longFoil,TORTURE,GRASSHOPPER,,,,,,MARBLE,CUSTOMER,short,resources/sound/trials/audio_stim_comp65.mp3,60f9cfd807ab930c001820ce,33,Female,Right handed,2021-07-26_21h06.01.294,MA Experiment 2,2021.1.2,MacIntel,59.99880002,0,28,28,4,1,,,,,
1.2584,response_1,longFoil,CANTEEN,DESTROYER,,,,,,SACRED,GALAXY,short,resources/sound/trials/audio_stim_comp1.mp3,60f9cfd807ab930c001820ce,33,Female,Right handed,2021-07-26_21h06.01.294,MA Experiment 2,2021.1.2,MacIntel,59.99880002,0,29,29,7,1,,,,,
1.5948,response_1,shortValid,WALRUS,CITIZEN,,,,,,MINER,EMERALD,long,resources/sound/trials/audio_stim_human6.mp3,60f9cfd807ab930c001820ce,33,Female,Right handed,2021-07-26_21h06.01.294,MA Experiment 2,2021.1.2,MacIntel,59.99880002,0,30,30,30,1,,,,,
1.1197,response_2,,OFFICE,JANITOR,,,,,,IRIS,VIOLIN,long,resources/sound/catchTrials/audio_control_comp_project12.mp3,60f9cfd807ab930c001820ce,33,Female,Right handed,2021-07-26_21h06.01.294,MA Experiment 2,2021.1.2,MacIntel,59.99880002,,,,,,0,10,10,20,1
1.6086,response_2,longValid,WRITING,TEMPERATURE,,,,,,DAYLIGHT,MATERIAL,short,resources/sound/trials/audio_stim_human42.mp3,60f9cfd807ab930c001820ce,33,Female,Right handed,2021-07-26_21h06.01.294,MA Experiment 2,2021.1.2,MacIntel,59.99880002,0,31,31,9,1,,,,,
1.3092,response_2,shortFoil,LEADER,INSTRUCTOR,,,,,,PARTY,SANCTUARY,short,resources/sound/trials/audio_stim_human50.mp3,60f9cfd807ab930c001820ce,33,Female,Right handed,2021-07-26_21h06.01.294,MA Experiment 2,2021.1.2,MacIntel,59.99880002,0,32,32,14,1,,,,,
1.9609,response_2,shortValid,EVENING,CIGARETTE,,,,,,PAINTER,VEHICLE,short,resources/sound/trials/audio_stim_human47.mp3,60f9cfd807ab930c001820ce,33,Female,Right handed,2021-07-26_21h06.01.294,MA Experiment 2,2021.1.2,MacIntel,59.99880002,0,33,33,11,1,,,,,
1.3412,response_2,longFoil,FATHER,ALCOHOL,,,,,,PAINTER,VEHICLE,long,resources/sound/trials/audio_stim_human47.mp3,60f9cfd807ab930c001820ce,33,Female,Right handed,2021-07-26_21h06.01.294,MA Experiment 2,2021.1.2,MacIntel,59.99880002,1,0,34,28,1,,,,,
1.4209,response_1,longValid,PODIUM,CAMERA,,,,,,DAYLIGHT,MATERIAL,long,resources/sound/trials/audio_stim_human42.mp3,60f9cfd807ab930c001820ce,33,Female,Right handed,2021-07-26_21h06.01.294,MA Experiment 2,2021.1.2,MacIntel,59.99880002,1,1,35,26,1,,,,,
1.105,response_2,shortValid,INCOME,ENVELOPE,,,,,,PARTY,SANCTUARY,short,resources/sound/trials/audio_stim_human50.mp3,60f9cfd807ab930c001820ce,33,Female,Right handed,2021-07-26_21h06.01.294,MA Experiment 2,2021.1.2,MacIntel,59.99880002,1,2,36,14,1,,,,,
1.2056,response_2,,DUEL,UMBRELLA,,,,,,HOBBY,COLONY,short,resources/sound/catchTrials/audio_control_human_project04.mp3,60f9cfd807ab930c001820ce,33,Female,Right handed,2021-07-26_21h06.01.294,MA Experiment 2,2021.1.2,MacIntel,59.99880002,,,,,,0,9,9,11,1
2.5239,response_1,shortFoil,KENNEL,FACTORY,,,,,,ROBBER,RATTLESNAKE,short,resources/sound/trials/audio_stim_human64.mp3,60f9cfd807ab930c001820ce,33,Female,Right handed,2021-07-26_21h06.01.294,MA Experiment 2,2021.1.2,MacIntel,59.99880002,1,3,37,15,1,,,,,
1.1902,response_1,longValid,OLIVE,FAMILY,,,,,,HARDWARE,OVERCOAT,short,resources/sound/trials/audio_stim_human35.mp3,60f9cfd807ab930c001820ce,33,Female,Right handed,2021-07-26_21h06.01.294,MA Experiment 2,2021.1.2,MacIntel,59.99880002,1,4,38,8,1,,,,,
1.5557,response_1,longValid,POLO,REFEREE,,,,,,MINER,EMERALD,short,resources/sound/trials/audio_stim_human6.mp3,60f9cfd807ab930c001820ce,33,Female,Right handed,2021-07-26_21h06.01.294,MA Experiment 2,2021.1.2,MacIntel,59.99880002,1,5,39,13,1,,,,,
1.829,response_2,longValid,CRYSTAL,FISHERMAN,,,,,,SACRED,GALAXY,long,resources/sound/trials/audio_stim_comp1.mp3,60f9cfd807ab930c001820ce,33,Female,Right handed,2021-07-26_21h06.01.294,MA Experiment 2,2021.1.2,MacIntel,59.99880002,1,6,40,24,1,,,,,
1.9508,response_2,,BERRY,LEMONADE,,,,,,JOURNAL,ROBBERY,long,resources/sound/catchTrials/audio_control_human_project02.mp3,60f9cfd807ab930c001820ce,33,Female,Right handed,2021-07-26_21h06.01.294,MA Experiment 2,2021.1.2,MacIntel,59.99880002,,,,,,0,29,29,29,1
1.2939,response_1,shortValid,SCOOTER,MONUMENT,,,,,,WHISTLE,TREASURER,short,resources/sound/trials/audio_stim_comp12.mp3,60f9cfd807ab930c001820ce,33,Female,Right handed,2021-07-26_21h06.01.294,MA Experiment 2,2021.1.2,MacIntel,59.99880002,1,7,41,3,1,,,,,
1.2179,response_1,shortFoil,DANCER,INDUSTRY,,,,,,MINER,EMERALD,long,resources/sound/trials/audio_stim_comp6.mp3,60f9cfd807ab930c001820ce,33,Female,Right handed,2021-07-26_21h06.01.294,MA Experiment 2,2021.1.2,MacIntel,59.99880002,1,8,42,18,1,,,,,
1.2971,response_2,shortFoil,DWELLER,ICICLE,,,,,,PARTY,SANCTUARY,long,resources/sound/trials/audio_stim_human50.mp3,60f9cfd807ab930c001820ce,33,Female,Right handed,2021-07-26_21h06.01.294,MA Experiment 2,2021.1.2,MacIntel,59.99880002,1,9,43,31,1,,,,,
1.5206,response_2,longFoil,GRADUATE,MERCURY,,,,,,WORKER,VISITOR,short,resources/sound/trials/audio_stim_comp17.mp3,60f9cfd807ab930c001820ce,33,Female,Right handed,2021-07-26_21h06.01.294,MA Experiment 2,2021.1.2,MacIntel,59.99880002,1,10,44,6,1,,,,,
1.3572,response_1,,LOBSTER,PROJECTOR,,,,,,VIOLET,LUBRICANT,short,resources/sound/catchTrials/audio_control_comp_project07.mp3,60f9cfd807ab930c001820ce,33,Female,Right handed,2021-07-26_21h06.01.294,MA Experiment 2,2021.1.2,MacIntel,59.99880002,,,,,,0,3,3,3,1
1.3351,response_2,longFoil,LIGHTNING,MOSQUITO,,,,,,ATHLETE,IVORY,short,resources/sound/trials/audio_stim_comp57.mp3,60f9cfd807ab930c001820ce,33,Female,Right handed,2021-07-26_21h06.01.294,MA Experiment 2,2021.1.2,MacIntel,59.99880002,1,11,45,5,1,,,,,
1.0821,response_2,longFoil,PERSON,ENAMEL,,,,,,PAINTER,VEHICLE,short,resources/sound/trials/audio_stim_human47.mp3,60f9cfd807ab930c001820ce,33,Female,Right handed,2021-07-26_21h06.01.294,MA Experiment 2,2021.1.2,MacIntel,59.99880002,1,12,46,11,1,,,,,
1.216,response_1,longValid,VALLEY,CHOCOLATE,,,,,,SACRED,GALAXY,short,resources/sound/trials/audio_stim_comp1.mp3,60f9cfd807ab930c001820ce,33,Female,Right handed,2021-07-26_21h06.01.294,MA Experiment 2,2021.1.2,MacIntel,59.99880002,1,13,47,7,1,,,,,
1.6017,response_1,shortValid,MORNING,CINNAMON,,,,,,RUBBER,PROPERTY,short,resources/sound/trials/audio_stim_human0.mp3,60f9cfd807ab930c001820ce,33,Female,Right handed,2021-07-26_21h06.01.294,MA Experiment 2,2021.1.2,MacIntel,59.99880002,1,14,48,12,1,,,,,
1.3677,response_2,,ACRE,MEDICINE,,,,,,BORDER,ALGEBRA,long,resources/sound/catchTrials/audio_control_comp_project00.mp3,60f9cfd807ab930c001820ce,33,Female,Right handed,2021-07-26_21h06.01.294,MA Experiment 2,2021.1.2,MacIntel,59.99880002,,,,,,0,25,25,16,1
1.2132,response_2,longValid,TUMBLE,SAXOPHONE,,,,,,MARBLE,CUSTOMER,long,resources/sound/trials/audio_stim_comp65.mp3,60f9cfd807ab930c001820ce,33,Female,Right handed,2021-07-26_21h06.01.294,MA Experiment 2,2021.1.2,MacIntel,59.99880002,1,15,49,21,1,,,,,
1.46,response_2,longValid,PIANO,INJURY,,,,,,DRIZZLE,CARDINAL,short,resources/sound/trials/audio_stim_comp69.mp3,60f9cfd807ab930c001820ce,33,Female,Right handed,2021-07-26_21h06.01.294,MA Experiment 2,2021.1.2,MacIntel,59.99880002,1,16,50,0,1,,,,,
1.4461,response_1,shortFoil,MURDER,MESSENGER,,,,,,HARDWARE,OVERCOAT,long,resources/sound/trials/audio_stim_human35.mp3,60f9cfd807ab930c001820ce,33,Female,Right handed,2021-07-26_21h06.01.294,MA Experiment 2,2021.1.2,MacIntel,59.99880002,1,17,51,25,1,,,,,
1.4876,response_2,longValid,TWEEZER,GYMNASTICS,,,,,,RECEIPT,LIMOUSINE,short,resources/sound/trials/audio_stim_comp40.mp3,60f9cfd807ab930c001820ce,33,Female,Right handed,2021-07-26_21h06.01.294,MA Experiment 2,2021.1.2,MacIntel,59.99880002,1,18,52,2,1,,,,,
1.1036,response_2,,FAIRY,GORILLA,,,,,,SPINACH,APRICOT,short,resources/sound/catchTrials/audio_control_comp_project18.mp3,60f9cfd807ab930c001820ce,33,Female,Right handed,2021-07-26_21h06.01.294,MA Experiment 2,2021.1.2,MacIntel,59.99880002,,,,,,0,8,8,5,1
1.0703,response_1,shortValid,RUSTY,NEIGHBOURHOOD,,,,,,BRAINSTORM,GREEN NEEDLE,short,resources/sound/trials/audio_stim_original.mp3,60f9cfd807ab930c001820ce,33,Female,Right handed,2021-07-26_21h06.01.294,MA Experiment 2,2021.1.2,MacIntel,59.99880002,1,19,53,16,1,,,,,
1.2552,response_2,longFoil,DIAL,HEADQUARTERS,,,,,,MINER,EMERALD,short,resources/sound/trials/audio_stim_comp6.mp3,60f9cfd807ab930c001820ce,33,Female,Right handed,2021-07-26_21h06.01.294,MA Experiment 2,2021.1.2,MacIntel,59.99880002,1,20,54,1,1,,,,,
2.2863,response_3,longValid,WIRE,SPECIALIST,,,,,,RECEIPT,LIMOUSINE,long,resources/sound/trials/audio_stim_comp40.mp3,60f9cfd807ab930c001820ce,33,Female,Right handed,2021-07-26_21h06.01.294,MA Experiment 2,2021.1.2,MacIntel,59.99880002,1,21,55,19,1,,,,,
1.8945,response_2,shortFoil,NAPKIN,RETAILER,,,,,,MARBLE,CUSTOMER,short,resources/sound/trials/audio_stim_comp65.mp3,60f9cfd807ab930c001820ce,33,Female,Right handed,2021-07-26_21h06.01.294,MA Experiment 2,2021.1.2,MacIntel,59.99880002,1,22,56,4,1,,,,,
1.338,response_2,,SULPHUR,ABDOMEN,,,,,,IRIS,VIOLIN,long,resources/sound/catchTrials/audio_control_human_project12.mp3,60f9cfd807ab930c001820ce,33,Female,Right handed,2021-07-26_21h06.01.294,MA Experiment 2,2021.1.2,MacIntel,59.99880002,,,,,,0,5,5,24,1
1.6554,response_1,shortFoil,NATIVE,CABINET,,,,,,MINER,EMERALD,long,resources/sound/trials/audio_stim_human6.mp3,60f9cfd807ab930c001820ce,33,Female,Right handed,2021-07-26_21h06.01.294,MA Experiment 2,2021.1.2,MacIntel,59.99880002,1,23,57,30,1,,,,,
2.1814,response_1,shortValid,PIPING,CANDLELIGHT,,,,,,DRIZZLE,CARDINAL,long,resources/sound/trials/audio_stim_comp69.mp3,60f9cfd807ab930c001820ce,33,Female,Right handed,2021-07-26_21h06.01.294,MA Experiment 2,2021.1.2,MacIntel,59.99880002,1,24,58,17,1,,,,,
1.2584,response_2,longValid,SEGMENT,PROPELLER,,,,,,ROBBER,RATTLESNAKE,long,resources/sound/trials/audio_stim_human64.mp3,60f9cfd807ab930c001820ce,33,Female,Right handed,2021-07-26_21h06.01.294,MA Experiment 2,2021.1.2,MacIntel,59.99880002,1,25,59,32,1,,,,,
1.233,response_2,longFoil,CEREAL,ASBESTOS,,,,,,CONCRETE,ENEMY,short,resources/sound/trials/audio_stim_human67.mp3,60f9cfd807ab930c001820ce,33,Female,Right handed,2021-07-26_21h06.01.294,MA Experiment 2,2021.1.2,MacIntel,59.99880002,1,26,60,10,1,,,,,
1.5078,response_2,,PRINCESS,HONEYMOON,,,,,,CORNER,ENGINEER,long,resources/sound/catchTrials/audio_control_comp_project14.mp3,60f9cfd807ab930c001820ce,33,Female,Right handed,2021-07-26_21h06.01.294,MA Experiment 2,2021.1.2,MacIntel,59.99880002,,,,,,0,12,12,17,1
1.1392,response_1,longFoil,VAPOUR,POLICEMAN,,,,,,RUBBER,PROPERTY,long,resources/sound/trials/audio_stim_human0.mp3,60f9cfd807ab930c001820ce,33,Female,Right handed,2021-07-26_21h06.01.294,MA Experiment 2,2021.1.2,MacIntel,59.99880002,1,27,61,29,1,,,,,
1.4767,response_1,longFoil,PATIENT,EMULSION,,,,,,DAYLIGHT,MATERIAL,short,resources/sound/trials/audio_stim_human42.mp3,60f9cfd807ab930c001820ce,33,Female,Right handed,2021-07-26_21h06.01.294,MA Experiment 2,2021.1.2,MacIntel,59.99880002,1,28,62,9,1,,,,,
1.0088,response_2,longValid,BUTTER,OPENING,,,,,,BRAINSTORM,GREEN NEEDLE,long,resources/sound/trials/audio_stim_original.mp3,60f9cfd807ab930c001820ce,33,Female,Right handed,2021-07-26_21h06.01.294,MA Experiment 2,2021.1.2,MacIntel,59.99880002,1,29,63,33,1,,,,,
1.0284,response_2,longValid,TEMPLE,INTERVIEW,,,,,,ATHLETE,IVORY,long,resources/sound/trials/audio_stim_comp57.mp3,60f9cfd807ab930c001820ce,33,Female,Right handed,2021-07-26_21h06.01.294,MA Experiment 2,2021.1.2,MacIntel,59.99880002,1,30,64,22,1,,,,,
2.6937,response_2,,FERTILE,PHYSICIAN,,,,,,ICY,JITTERBUG,short,resources/sound/catchTrials/audio_control_comp_project08.mp3,60f9cfd807ab930c001820ce,33,Female,Right handed,2021-07-26_21h06.01.294,MA Experiment 2,2021.1.2,MacIntel,59.99880002,,,,,,0,6,6,7,1
2.1919,response_2,longValid,INVOICE,TANGERINE,,,,,,WHISTLE,TREASURER,long,resources/sound/trials/audio_stim_comp12.mp3,60f9cfd807ab930c001820ce,33,Female,Right handed,2021-07-26_21h06.01.294,MA Experiment 2,2021.1.2,MacIntel,59.99880002,1,31,65,20,1,,,,,
1.0664,response_2,shortFoil,BEETLE,INSTITUTE,,,,,,WORKER,VISITOR,long,resources/sound/trials/audio_stim_comp17.mp3,60f9cfd807ab930c001820ce,33,Female,Right handed,2021-07-26_21h06.01.294,MA Experiment 2,2021.1.2,MacIntel,59.99880002,1,32,66,23,1,,,,,
1.9303,response_2,shortFoil,NOVEL,AMMONIA,,,,,,CONCRETE,ENEMY,long,resources/sound/trials/audio_stim_human67.mp3,60f9cfd807ab930c001820ce,33,Female,Right handed,2021-07-26_21h06.01.294,MA Experiment 2,2021.1.2,MacIntel,59.99880002,1,33,67,27,1,,,,,
1.4667,response_1,shortValid,WINDOW,VINEGAR,,,,,,MINER,EMERALD,short,resources/sound/trials/audio_stim_comp6.mp3,60f9cfd807ab930c001820ce,33,Female,Right handed,2021-07-26_21h06.01.294,MA Experiment 2,2021.1.2,MacIntel,59.99880002,2,0,68,1,1,,,,,
1.132,response_2,longFoil,OFFICE,GYMNASTICS,,,,,,MINER,EMERALD,long,resources/sound/trials/audio_stim_human6.mp3,60f9cfd807ab930c001820ce,33,Female,Right handed,2021-07-26_21h06.01.294,MA Experiment 2,2021.1.2,MacIntel,59.99880002,2,1,69,30,1,,,,,
1.7676,response_2,shortValid,RUSTY,NEIGHBOURHOOD,,,,,,DAYLIGHT,MATERIAL,short,resources/sound/trials/audio_stim_human42.mp3,60f9cfd807ab930c001820ce,33,Female,Right handed,2021-07-26_21h06.01.294,MA Experiment 2,2021.1.2,MacIntel,59.99880002,2,2,70,9,1,,,,,
1.5457,response_2,,WIRE,CINNAMON,,,,,,CORNER,ENGINEER,short,resources/sound/catchTrials/audio_control_human_project14.mp3,60f9cfd807ab930c001820ce,33,Female,Right handed,2021-07-26_21h06.01.294,MA Experiment 2,2021.1.2,MacIntel,59.99880002,,,,,,0,28,28,10,1
0.9009,response_2,longValid,BUTTER,POLICEMAN,,,,,,DRIZZLE,CARDINAL,long,resources/sound/trials/audio_stim_comp69.mp3,60f9cfd807ab930c001820ce,33,Female,Right handed,2021-07-26_21h06.01.294,MA Experiment 2,2021.1.2,MacIntel,59.99880002,2,3,71,17,1,,,,,
1.7288,response_2,shortValid,BERRY,CABINET,,,,,,CONCRETE,ENEMY,long,resources/sound/trials/audio_stim_human67.mp3,60f9cfd807ab930c001820ce,33,Female,Right handed,2021-07-26_21h06.01.294,MA Experiment 2,2021.1.2,MacIntel,59.99880002,2,4,72,27,1,,,,,
1.6242,response_2,shortFoil,FEVER,OPENING,,,,,,SACRED,GALAXY,long,resources/sound/trials/audio_stim_comp1.mp3,60f9cfd807ab930c001820ce,33,Female,Right handed,2021-07-26_21h06.01.294,MA Experiment 2,2021.1.2,MacIntel,59.99880002,2,5,73,24,1,,,,,
0.9561,response_1,longFoil,ACRE,HURRICANE,,,,,,HARDWARE,OVERCOAT,long,resources/sound/trials/audio_stim_human35.mp3,60f9cfd807ab930c001820ce,33,Female,Right handed,2021-07-26_21h06.01.294,MA Experiment 2,2021.1.2,MacIntel,59.99880002,2,6,74,25,1,,,,,
1.3712,response_2,,SCOOTER,INDUSTRY,,,,,,NAVY,RECTANGLE,long,resources/sound/catchTrials/audio_control_human_project06.mp3,60f9cfd807ab930c001820ce,33,Female,Right handed,2021-07-26_21h06.01.294,MA Experiment 2,2021.1.2,MacIntel,59.99880002,,,,,,0,23,23,30,1
1.8609,response_2,longFoil,NATIVE,INJURY,,,,,,RECEIPT,LIMOUSINE,long,resources/sound/trials/audio_stim_comp40.mp3,60f9cfd807ab930c001820ce,33,Female,Right handed,2021-07-26_21h06.01.294,MA Experiment 2,2021.1.2,MacIntel,59.99880002,2,7,75,19,1,,,,,
1.0669,response_1,shortFoil,VAPOUR,ICICLE,,,,,,HARDWARE,OVERCOAT,short,resources/sound/trials/audio_stim_human35.mp3,60f9cfd807ab930c001820ce,33,Female,Right handed,2021-07-26_21h06.01.294,MA Experiment 2,2021.1.2,MacIntel,59.99880002,2,8,76,8,1,,,,,
1.0574,response_2,longValid,MURAL,DESTROYER,,,,,,WORKER,VISITOR,short,resources/sound/trials/audio_stim_comp17.mp3,60f9cfd807ab930c001820ce,33,Female,Right handed,2021-07-26_21h06.01.294,MA Experiment 2,2021.1.2,MacIntel,59.99880002,2,9,77,6,1,,,,,
1.1807,response_1,shortValid,PIANO,FAMILY,,,,,,ROBBER,RATTLESNAKE,short,resources/sound/trials/audio_stim_human64.mp3,60f9cfd807ab930c001820ce,33,Female,Right handed,2021-07-26_21h06.01.294,MA Experiment 2,2021.1.2,MacIntel,59.99880002,2,10,78,15,1,,,,,
1.4007,response_2,,OLIVE,CLARINET,,,,,,JOURNAL,ROBBERY,short,resources/sound/catchTrials/audio_control_human_project02.mp3,60f9cfd807ab930c001820ce,33,Female,Right handed,2021-07-26_21h06.01.294,MA Experiment 2,2021.1.2,MacIntel,59.99880002,,,,,,0,0,0,13,1
2.1972,response_1,longFoil,FERTILE,GORILLA,,,,,,ROBBER,RATTLESNAKE,long,resources/sound/trials/audio_stim_human64.mp3,60f9cfd807ab930c001820ce,33,Female,Right handed,2021-07-26_21h06.01.294,MA Experiment 2,2021.1.2,MacIntel,59.99880002,2,11,79,32,1,,,,,
1.4984,response_2,shortFoil,PRINCESS,LEMONADE,,,,,,SACRED,GALAXY,short,resources/sound/trials/audio_stim_comp1.mp3,60f9cfd807ab930c001820ce,33,Female,Right handed,2021-07-26_21h06.01.294,MA Experiment 2,2021.1.2,MacIntel,59.99880002,2,12,80,7,1,,,,,
1.7091,response_2,longValid,NEIGHBOUR,ASBESTOS,,,,,,PAINTER,VEHICLE,long,resources/sound/trials/audio_stim_human47.mp3,60f9cfd807ab930c001820ce,33,Female,Right handed,2021-07-26_21h06.01.294,MA Experiment 2,2021.1.2,MacIntel,59.99880002,2,13,81,28,1,,,,,
1.5931,response_1,longFoil,DIAL,MINERAL,,,,,,ATHLETE,IVORY,long,resources/sound/trials/audio_stim_comp57.mp3,60f9cfd807ab930c001820ce,33,Female,Right handed,2021-07-26_21h06.01.294,MA Experiment 2,2021.1.2,MacIntel,59.99880002,2,14,82,22,1,,,,,
1.0604,response_2,,VILLAGE,BEVERAGE,,,,,,HOBBY,COLONY,long,resources/sound/catchTrials/audio_control_human_project04.mp3,60f9cfd807ab930c001820ce,33,Female,Right handed,2021-07-26_21h06.01.294,MA Experiment 2,2021.1.2,MacIntel,59.99880002,,,,,,0,27,27,27,1
1.5324,response_2,shortFoil,ANCHOR,HONEYMOON,,,,,,BRAINSTORM,GREEN NEEDLE,short,resources/sound/trials/audio_stim_original.mp3,60f9cfd807ab930c001820ce,33,Female,Right handed,2021-07-26_21h06.01.294,MA Experiment 2,2021.1.2,MacIntel,59.99880002,2,15,83,16,1,,,,,
2.0041,response_1,longFoil,SEGMENT,SAXOPHONE,,,,,,MINER,EMERALD,short,resources/sound/trials/audio_stim_human6.mp3,60f9cfd807ab930c001820ce,33,Female,Right handed,2021-07-26_21h06.01.294,MA Experiment 2,2021.1.2,MacIntel,59.99880002,2,16,84,13,1,,,,,
1.6028,response_2,shortValid,WAFER,CAPITAL,,,,,,ATHLETE,IVORY,short,resources/sound/trials/audio_stim_comp57.mp3,60f9cfd807ab930c001820ce,33,Female,Right handed,2021-07-26_21h06.01.294,MA Experiment 2,2021.1.2,MacIntel,59.99880002,2,17,85,5,1,,,,,
1.7225,response_2,longFoil,STATION,RETAILER,,,,,,PARTY,SANCTUARY,long,resources/sound/trials/audio_stim_human50.mp3,60f9cfd807ab930c001820ce,33,Female,Right handed,2021-07-26_21h06.01.294,MA Experiment 2,2021.1.2,MacIntel,59.99880002,2,18,86,31,1,,,,,
1.292,response_2,,DIVING,ENAMEL,,,,,,ICY,JITTERBUG,long,resources/sound/catchTrials/audio_control_comp_project08.mp3,60f9cfd807ab930c001820ce,33,Female,Right handed,2021-07-26_21h06.01.294,MA Experiment 2,2021.1.2,MacIntel,59.99880002,,,,,,0,4,4,23,1
1.571,response_2,longValid,PICTURE,ATTENDANT,,,,,,PARTY,SANCTUARY,short,resources/sound/trials/audio_stim_human50.mp3,60f9cfd807ab930c001820ce,33,Female,Right handed,2021-07-26_21h06.01.294,MA Experiment 2,2021.1.2,MacIntel,59.99880002,2,19,87,14,1,,,,,
1.0871,response_2,longValid,EARTHWORM,CROCODILE,,,,,,WORKER,VISITOR,long,resources/sound/trials/audio_stim_comp17.mp3,60f9cfd807ab930c001820ce,33,Female,Right handed,2021-07-26_21h06.01.294,MA Experiment 2,2021.1.2,MacIntel,59.99880002,2,20,88,23,1,,,,,
1.4526,response_2,longValid,BISHOP,INSTITUTE,,,,,,MARBLE,CUSTOMER,short,resources/sound/trials/audio_stim_comp65.mp3,60f9cfd807ab930c001820ce,33,Female,Right handed,2021-07-26_21h06.01.294,MA Experiment 2,2021.1.2,MacIntel,59.99880002,2,21,89,4,1,,,,,
1.4141,response_2,shortFoil,SHEEPSKIN,INSTRUCTOR,,,,,,DRIZZLE,CARDINAL,short,resources/sound/trials/audio_stim_comp69.mp3,60f9cfd807ab930c001820ce,33,Female,Right handed,2021-07-26_21h06.01.294,MA Experiment 2,2021.1.2,MacIntel,59.99880002,2,22,90,0,1,,,,,
0.985,response_1,,POLO,CONVENTION,,,,,,POISON,REVOLVER,long,resources/sound/catchTrials/audio_control_human_project01.mp3,60f9cfd807ab930c001820ce,33,Female,Right handed,2021-07-26_21h06.01.294,MA Experiment 2,2021.1.2,MacIntel,59.99880002,,,,,,0,17,17,25,1
1.5937,response_1,shortValid,NOVEL,MESSENGER,,,,,,WHISTLE,TREASURER,long,resources/sound/trials/audio_stim_comp12.mp3,60f9cfd807ab930c001820ce,33,Female,Right handed,2021-07-26_21h06.01.294,MA Experiment 2,2021.1.2,MacIntel,59.99880002,2,23,91,20,1,,,,,
1.587,response_1,longFoil,CIGAR,TANGERINE,,,,,,WHISTLE,TREASURER,short,resources/sound/trials/audio_stim_comp12.mp3,60f9cfd807ab930c001820ce,33,Female,Right handed,2021-07-26_21h06.01.294,MA Experiment 2,2021.1.2,MacIntel,59.99880002,2,24,92,3,1,,,,,
1.2408,response_2,longFoil,MURDER,NEWSPAPER,,,,,,RUBBER,PROPERTY,short,resources/sound/trials/audio_stim_human0.mp3,60f9cfd807ab930c001820ce,33,Female,Right handed,2021-07-26_21h06.01.294,MA Experiment 2,2021.1.2,MacIntel,59.99880002,2,25,93,12,1,,,,,
0.8203,response_2,shortValid,NURSERY,PHOTOGRAPH,,,,,,DAYLIGHT,MATERIAL,long,resources/sound/trials/audio_stim_human42.mp3,60f9cfd807ab930c001820ce,33,Female,Right handed,2021-07-26_21h06.01.294,MA Experiment 2,2021.1.2,MacIntel,59.99880002,2,26,94,26,1,,,,,
1.4898,response_2,,CRYSTAL,APPLIANCE,,,,,,HOBBY,COLONY,short,resources/sound/catchTrials/audio_control_comp_project04.mp3,60f9cfd807ab930c001820ce,33,Female,Right handed,2021-07-26_21h06.01.294,MA Experiment 2,2021.1.2,MacIntel,59.99880002,,,,,,0,19,19,2,1
1.5233,response_2,shortValid,FATHER,MINISTER,,,,,,RUBBER,PROPERTY,long,resources/sound/trials/audio_stim_human0.mp3,60f9cfd807ab930c001820ce,33,Female,Right handed,2021-07-26_21h06.01.294,MA Experiment 2,2021.1.2,MacIntel,59.99880002,2,27,95,29,1,,,,,
2.3519,response_2,shortValid,MEASLES,JANITOR,,,,,,MARBLE,CUSTOMER,long,resources/sound/trials/audio_stim_comp65.mp3,60f9cfd807ab930c001820ce,33,Female,Right handed,2021-07-26_21h06.01.294,MA Experiment 2,2021.1.2,MacIntel,59.99880002,2,28,96,21,1,,,,,
1.4194,response_2,longValid,INVOICE,UMBRELLA,,,,,,PAINTER,VEHICLE,short,resources/sound/trials/audio_stim_human47.mp3,60f9cfd807ab930c001820ce,33,Female,Right handed,2021-07-26_21h06.01.294,MA Experiment 2,2021.1.2,MacIntel,59.99880002,2,29,97,11,1,,,,,
1.3812,response_2,shortFoil,MOONLIGHT,REFEREE,,,,,,BRAINSTORM,GREEN NEEDLE,long,resources/sound/trials/audio_stim_original.mp3,60f9cfd807ab930c001820ce,33,Female,Right handed,2021-07-26_21h06.01.294,MA Experiment 2,2021.1.2,MacIntel,59.99880002,2,30,98,33,1,,,,,
1.4414,response_2,,SOFA,MOSQUITO,,,,,,HOBBY,COLONY,long,resources/sound/catchTrials/audio_control_comp_project04.mp3,60f9cfd807ab930c001820ce,33,Female,Right handed,2021-07-26_21h06.01.294,MA Experiment 2,2021.1.2,MacIntel,59.99880002,,,,,,0,11,11,18,1
1.2944,response_2,shortValid,PIPING,PHYSICIAN,,,,,,RECEIPT,LIMOUSINE,short,resources/sound/trials/audio_stim_comp40.mp3,60f9cfd807ab930c001820ce,33,Female,Right handed,2021-07-26_21h06.01.294,MA Experiment 2,2021.1.2,MacIntel,59.99880002,2,31,99,2,1,,,,,
1.7617,response_2,shortFoil,LIGHTNING,COMMITTEE,,,,,,CONCRETE,ENEMY,short,resources/sound/trials/audio_stim_human67.mp3,60f9cfd807ab930c001820ce,33,Female,Right handed,2021-07-26_21h06.01.294,MA Experiment 2,2021.1.2,MacIntel,59.99880002,2,32,100,10,1,,,,,
1.2784,response_1,longFoil,STOCKING,FIREWOOD,,,,,,MINER,EMERALD,long,resources/sound/trials/audio_stim_comp6.mp3,60f9cfd807ab930c001820ce,33,Female,Right handed,2021-07-26_21h06.01.294,MA Experiment 2,2021.1.2,MacIntel,59.99880002,2,33,101,18,1,,,,,
2.1652,response_2,longValid,VESSEL,ADMIRAL,,,,,,CONCRETE,ENEMY,short,resources/sound/trials/audio_stim_human67.mp3,60f9cfd807ab930c001820ce,33,Female,Right handed,2021-07-26_21h06.01.294,MA Experiment 2,2021.1.2,MacIntel,59.99880002,3,0,102,10,1,,,,,
1.5975,response_1,longFoil,HAMMER,AMMONIA,,,,,,DAYLIGHT,MATERIAL,long,resources/sound/trials/audio_stim_human42.mp3,60f9cfd807ab930c001820ce,33,Female,Right handed,2021-07-26_21h06.01.294,MA Experiment 2,2021.1.2,MacIntel,59.99880002,3,1,103,26,1,,,,,
2.01,response_2,longFoil,CURFEW,CHOCOLATE,,,,,,BRAINSTORM,GREEN NEEDLE,long,resources/sound/trials/audio_stim_original.mp3,60f9cfd807ab930c001820ce,33,Female,Right handed,2021-07-26_21h06.01.294,MA Experiment 2,2021.1.2,MacIntel,59.99880002,3,2,104,33,1,,,,,
1.6904,response_2,,CAPTAIN,SETTLEMENT,,,,,,IRIS,VIOLIN,short,resources/sound/catchTrials/audio_control_comp_project12.mp3,60f9cfd807ab930c001820ce,33,Female,Right handed,2021-07-26_21h06.01.294,MA Experiment 2,2021.1.2,MacIntel,59.99880002,,,,,,0,31,31,4,1
1.7262,response_2,shortValid,JURY,HANDKERCHIEF,,,,,,SACRED,GALAXY,short,resources/sound/trials/audio_stim_comp1.mp3,60f9cfd807ab930c001820ce,33,Female,Right handed,2021-07-26_21h06.01.294,MA Experiment 2,2021.1.2,MacIntel,59.99880002,3,3,105,7,1,,,,,
1.5323,response_1,shortFoil,RABBI,HOSPITAL,,,,,,DAYLIGHT,MATERIAL,short,resources/sound/trials/audio_stim_human42.mp3,60f9cfd807ab930c001820ce,33,Female,Right handed,2021-07-26_21h06.01.294,MA Experiment 2,2021.1.2,MacIntel,59.99880002,3,4,106,9,1,,,,,
1.3359,response_2,longFoil,SODA,CORRIDOR,,,,,,PARTY,SANCTUARY,short,resources/sound/trials/audio_stim_human50.mp3,60f9cfd807ab930c001820ce,33,Female,Right handed,2021-07-26_21h06.01.294,MA Experiment 2,2021.1.2,MacIntel,59.99880002,3,5,107,14,1,,,,,
1.1352,response_2,longFoil,DOORWAY,INSTRUMENT,,,,,,DRIZZLE,CARDINAL,long,resources/sound/trials/audio_stim_comp69.mp3,60f9cfd807ab930c001820ce,33,Female,Right handed,2021-07-26_21h06.01.294,MA Experiment 2,2021.1.2,MacIntel,59.99880002,3,6,108,17,1,,,,,
1.2089,response_1,,TWEEZER,INFECTION,,,,,,VIOLET,LUBRICANT,long,resources/sound/catchTrials/audio_control_comp_project07.mp3,60f9cfd807ab930c001820ce,33,Female,Right handed,2021-07-26_21h06.01.294,MA Experiment 2,2021.1.2,MacIntel,59.99880002,,,,,,0,2,2,19,1
1.6797,response_2,longFoil,PATIENT,STRAWBERRY,,,,,,MARBLE,CUSTOMER,long,resources/sound/trials/audio_stim_comp65.mp3,60f9cfd807ab930c001820ce,33,Female,Right handed,2021-07-26_21h06.01.294,MA Experiment 2,2021.1.2,MacIntel,59.99880002,3,7,109,21,1,,,,,
0.9399,response_2,shortFoil,LOBSTER,VINEGAR,,,,,,PAINTER,VEHICLE,short,resources/sound/trials/audio_stim_human47.mp3,60f9cfd807ab930c001820ce,33,Female,Right handed,2021-07-26_21h06.01.294,MA Experiment 2,2021.1.2,MacIntel,59.99880002,3,8,110,11,1,,,,,
1.1292,response_2,shortValid,LIQUID,FISHERMAN,,,,,,ATHLETE,IVORY,long,resources/sound/trials/audio_stim_comp57.mp3,60f9cfd807ab930c001820ce,33,Female,Right handed,2021-07-26_21h06.01.294,MA Experiment 2,2021.1.2,MacIntel,59.99880002,3,9,111,22,1,,,,,
1.0627,response_1,shortFoil,MEDICINE,CATHEDRAL,,,,,,WHISTLE,TREASURER,long,resources/sound/trials/audio_stim_comp12.mp3,60f9cfd807ab930c001820ce,33,Female,Right handed,2021-07-26_21h06.01.294,MA Experiment 2,2021.1.2,MacIntel,59.99880002,3,10,112,20,1,,,,,
1.3678,response_2,,UNCLE,MEDICINE,,,,,,CORNER,ENGINEER,long,resources/sound/catchTrials/audio_control_human_project14.mp3,60f9cfd807ab930c001820ce,33,Female,Right handed,2021-07-26_21h06.01.294,MA Experiment 2,2021.1.2,MacIntel,59.99880002,,,,,,0,21,21,26,1
1.3557,response_2,longValid,NAPKIN,CAMERA,,,,,,RUBBER,PROPERTY,short,resources/sound/trials/audio_stim_human0.mp3,60f9cfd807ab930c001820ce,33,Female,Right handed,2021-07-26_21h06.01.294,MA Experiment 2,2021.1.2,MacIntel,59.99880002,3,11,113,12,1,,,,,
1.0172,response_1,longFoil,FAIRY,SPECIALIST,,,,,,HARDWARE,OVERCOAT,short,resources/sound/trials/audio_stim_human35.mp3,60f9cfd807ab930c001820ce,33,Female,Right handed,2021-07-26_21h06.01.294,MA Experiment 2,2021.1.2,MacIntel,59.99880002,3,12,114,8,1,,,,,
1.6206,response_2,shortValid,EVENING,PROFESSOR,,,,,,MINER,EMERALD,short,resources/sound/trials/audio_stim_human6.mp3,60f9cfd807ab930c001820ce,33,Female,Right handed,2021-07-26_21h06.01.294,MA Experiment 2,2021.1.2,MacIntel,59.99880002,3,13,115,13,1,,,,,
1.655,response_1,shortValid,INCOME,MOLECULE,,,,,,MARBLE,CUSTOMER,short,resources/sound/trials/audio_stim_comp65.mp3,60f9cfd807ab930c001820ce,33,Female,Right handed,2021-07-26_21h06.01.294,MA Experiment 2,2021.1.2,MacIntel,59.99880002,3,14,116,4,1,,,,,
1.1772,response_2,,BURNER,TEMPERATURE,,,,,,NAVY,RECTANGLE,long,resources/sound/catchTrials/audio_control_comp_project06.mp3,60f9cfd807ab930c001820ce,33,Female,Right handed,2021-07-26_21h06.01.294,MA Experiment 2,2021.1.2,MacIntel,59.99880002,,,,,,0,14,14,22,1
1.2364,response_2,shortValid,TRAITOR,POTATO,,,,,,RECEIPT,LIMOUSINE,long,resources/sound/trials/audio_stim_comp40.mp3,60f9cfd807ab930c001820ce,33,Female,Right handed,2021-07-26_21h06.01.294,MA Experiment 2,2021.1.2,MacIntel,59.99880002,3,15,117,19,1,,,,,
1.3079,response_2,longValid,TEMPLE,CANDLELIGHT,,,,,,HARDWARE,OVERCOAT,long,resources/sound/trials/audio_stim_human35.mp3,60f9cfd807ab930c001820ce,33,Female,Right handed,2021-07-26_21h06.01.294,MA Experiment 2,2021.1.2,MacIntel,59.99880002,3,16,118,25,1,,,,,
1.2993,response_1,longValid,GIRDLE,PROJECTOR,,,,,,RUBBER,PROPERTY,long,resources/sound/trials/audio_stim_human0.mp3,60f9cfd807ab930c001820ce,33,Female,Right handed,2021-07-26_21h06.01.294,MA Experiment 2,2021.1.2,MacIntel,59.99880002,3,17,119,29,1,,,,,
1.1921,response_2,longFoil,MISTRESS,EMULSION,,,,,,RECEIPT,LIMOUSINE,short,resources/sound/trials/audio_stim_comp40.mp3,60f9cfd807ab930c001820ce,33,Female,Right handed,2021-07-26_21h06.01.294,MA Experiment 2,2021.1.2,MacIntel,59.99880002,3,18,120,2,1,,,,,
0.9536,response_2,,DANCER,CITIZEN,,,,,,BORDER,ALGEBRA,short,resources/sound/catchTrials/audio_control_comp_project00.mp3,60f9cfd807ab930c001820ce,33,Female,Right handed,2021-07-26_21h06.01.294,MA Experiment 2,2021.1.2,MacIntel,59.99880002,,,,,,0,16,16,0,1
1.7271,response_2,longValid,VALLEY,BUTTERFLY,,,,,,CONCRETE,ENEMY,long,resources/sound/trials/audio_stim_human67.mp3,60f9cfd807ab930c001820ce,33,Female,Right handed,2021-07-26_21h06.01.294,MA Experiment 2,2021.1.2,MacIntel,59.99880002,3,19,121,27,1,,,,,
1.2954,response_1,shortValid,CEREAL,GOVERNMENT,,,,,,WORKER,VISITOR,short,resources/sound/trials/audio_stim_comp17.mp3,60f9cfd807ab930c001820ce,33,Female,Right handed,2021-07-26_21h06.01.294,MA Experiment 2,2021.1.2,MacIntel,59.99880002,3,20,122,6,1,,,,,
1.17,response_2,longFoil,KERNEL,ACROBAT,,,,,,DRIZZLE,CARDINAL,short,resources/sound/trials/audio_stim_comp69.mp3,60f9cfd807ab930c001820ce,33,Female,Right handed,2021-07-26_21h06.01.294,MA Experiment 2,2021.1.2,MacIntel,59.99880002,3,21,123,0,1,,,,,
1.5085,response_1,longValid,BEETLE,AMBULANCE,,,,,,ATHLETE,IVORY,short,resources/sound/trials/audio_stim_comp57.mp3,60f9cfd807ab930c001820ce,33,Female,Right handed,2021-07-26_21h06.01.294,MA Experiment 2,2021.1.2,MacIntel,59.99880002,3,22,124,5,1,,,,,
1.456,response_2,,HURDLE,CIGARETTE,,,,,,SPINACH,APRICOT,long,resources/sound/catchTrials/audio_control_comp_project18.mp3,60f9cfd807ab930c001820ce,33,Female,Right handed,2021-07-26_21h06.01.294,MA Experiment 2,2021.1.2,MacIntel,59.99880002,,,,,,0,1,1,21,1
1.646,response_1,shortValid,KENNEL,CARNATION,,,,,,SACRED,GALAXY,long,resources/sound/trials/audio_stim_comp1.mp3,60f9cfd807ab930c001820ce,33,Female,Right handed,2021-07-26_21h06.01.294,MA Experiment 2,2021.1.2,MacIntel,59.99880002,3,23,125,24,1,,,,,
1.9892,response_2,longValid,WINDOW,MERCURY,,,,,,BRAINSTORM,GREEN NEEDLE,short,resources/sound/trials/audio_stim_original.mp3,60f9cfd807ab930c001820ce,33,Female,Right handed,2021-07-26_21h06.01.294,MA Experiment 2,2021.1.2,MacIntel,59.99880002,3,24,126,16,1,,,,,
1.3062,response_2,longValid,LEADER,DISSECTION,,,,,,PARTY,SANCTUARY,long,resources/sound/trials/audio_stim_human50.mp3,60f9cfd807ab930c001820ce,33,Female,Right handed,2021-07-26_21h06.01.294,MA Experiment 2,2021.1.2,MacIntel,59.99880002,3,25,127,31,1,,,,,
1.2764,response_1,shortValid,SINGER,GINGERBREAD,,,,,,MINER,EMERALD,long,resources/sound/trials/audio_stim_comp6.mp3,60f9cfd807ab930c001820ce,33,Female,Right handed,2021-07-26_21h06.01.294,MA Experiment 2,2021.1.2,MacIntel,59.99880002,3,26,128,18,1,,,,,
0.9633,response_1,,DWELLER,PROPELLER,,,,,,JUGGLER,DANDELION,long,resources/sound/catchTrials/audio_control_human_project09.mp3,60f9cfd807ab930c001820ce,33,Female,Right handed,2021-07-26_21h06.01.294,MA Experiment 2,2021.1.2,MacIntel,59.99880002,,,,,,0,24,24,31,1
1.9795,response_2,shortValid,TORTURE,HEADQUARTERS,,,,,,PAINTER,VEHICLE,long,resources/sound/trials/audio_stim_human47.mp3,60f9cfd807ab930c001820ce,33,Female,Right handed,2021-07-26_21h06.01.294,MA Experiment 2,2021.1.2,MacIntel,59.99880002,3,27,129,28,1,,,,,
1.6668,response_1,shortValid,KETTLE,DIAMOND,,,,,,WORKER,VISITOR,long,resources/sound/trials/audio_stim_comp17.mp3,60f9cfd807ab930c001820ce,33,Female,Right handed,2021-07-26_21h06.01.294,MA Experiment 2,2021.1.2,MacIntel,59.99880002,3,28,130,23,1,,,,,
1.7714,response_1,shortFoil,SADDLE,ANTIQUE,,,,,,ROBBER,RATTLESNAKE,long,resources/sound/trials/audio_stim_human64.mp3,60f9cfd807ab930c001820ce,33,Female,Right handed,2021-07-26_21h06.01.294,MA Experiment 2,2021.1.2,MacIntel,59.99880002,3,29,131,32,1,,,,,
1.1223,response_2,longValid,FOREARM,ATHLETICS,,,,,,MINER,EMERALD,long,resources/sound/trials/audio_stim_human6.mp3,60f9cfd807ab930c001820ce,33,Female,Right handed,2021-07-26_21h06.01.294,MA Experiment 2,2021.1.2,MacIntel,59.99880002,3,30,132,30,1,,,,,
1.1491,response_2,,SHOULDER,FACTORY,,,,,,NAVY,RECTANGLE,short,resources/sound/catchTrials/audio_control_comp_project06.mp3,60f9cfd807ab930c001820ce,33,Female,Right handed,2021-07-26_21h06.01.294,MA Experiment 2,2021.1.2,MacIntel,59.99880002,,,,,,0,18,18,6,1
1.4534,response_1,longFoil,SULPHUR,GALLERY,,,,,,ROBBER,RATTLESNAKE,short,resources/sound/trials/audio_stim_human64.mp3,60f9cfd807ab930c001820ce,33,Female,Right handed,2021-07-26_21h06.01.294,MA Experiment 2,2021.1.2,MacIntel,59.99880002,3,31,133,15,1,,,,,
1.1967,response_1,shortFoil,MORNING,MECHANIC,,,,,,WHISTLE,TREASURER,short,resources/sound/trials/audio_stim_comp12.mp3,60f9cfd807ab930c001820ce,33,Female,Right handed,2021-07-26_21h06.01.294,MA Experiment 2,2021.1.2,MacIntel,59.99880002,3,32,134,3,1,,,,,
1.2076,response_2,longValid,PODIUM,FURNITURE,,,,,,MINER,EMERALD,short,resources/sound/trials/audio_stim_comp6.mp3,60f9cfd807ab930c001820ce,33,Female,Right handed,2021-07-26_21h06.01.294,MA Experiment 2,2021.1.2,MacIntel,59.99880002,3,33,135,1,1,,,,,
