response.time,response,cueTarget,rand_foil_1,rand_foil_2,prac_trials.thisRepN,prac_trials.thisTrialN,prac_trials.thisN,prac_trials.thisIndex,prac_trials.ran,word_1,word_2,cue,file_path,participant,age,gender,handedness,date,expName,psychopyVersion,OS,frameRate,trials.thisRepN,trials.thisTrialN,trials.thisN,trials.thisIndex,trials.ran,catchTrials.thisRepN,catchTrials.thisTrialN,catchTrials.thisN,catchTrials.thisIndex,catchTrials.ran
1.5485,response_2,shortFoil,MOONLIGHT,POTATO,0,0,0,7,1,BUCKLE,WALLABY,long,resources/sound/prac_trials/practice_cue_human7.mp3,60fcad7e0f438d71661601e3,21,Female,Right handed,2021-07-26_20h39.57.594,MA Experiment 2,2021.1.2,Win32,60.19744763,,,,,,,,,,
1.9626,response_1,shortValid,SADDLE,DESTROYER,0,1,1,11,1,KETCHUP,GONDOLA,long,resources/sound/prac_trials/practice_cue_human11.mp3,60fcad7e0f438d71661601e3,21,Female,Right handed,2021-07-26_20h39.57.594,MA Experiment 2,2021.1.2,Win32,60.19744763,,,,,,,,,,
1.4418,response_2,longValid,NOVEL,ATTENDANT,0,2,2,6,1,VACANT,SALVATION,long,resources/sound/prac_trials/practice_cue6.mp3,60fcad7e0f438d71661601e3,21,Female,Right handed,2021-07-26_20h39.57.594,MA Experiment 2,2021.1.2,Win32,60.19744763,,,,,,,,,,
1.28,response_1,longFoil,CEREAL,ANTIQUE,0,3,3,10,1,SAFFRON,JAVELIN,long,resources/sound/prac_trials/practice_cue10.mp3,60fcad7e0f438d71661601e3,21,Female,Right handed,2021-07-26_20h39.57.594,MA Experiment 2,2021.1.2,Win32,60.19744763,,,,,,,,,,
1.5633,response_2,shortValid,DWELLER,AMMONIA,0,4,4,1,1,CABLE,REPUBLIC,short,resources/sound/prac_trials/practice_cue_human1.mp3,60fcad7e0f438d71661601e3,21,Female,Right handed,2021-07-26_20h39.57.594,MA Experiment 2,2021.1.2,Win32,60.19744763,,,,,,,,,,
1.4416,response_4,shortFoil,TEMPLE,AMBULANCE,0,5,5,8,1,DAGGER,EMPHASIS,long,resources/sound/prac_trials/practice_cue8.mp3,60fcad7e0f438d71661601e3,21,Female,Right handed,2021-07-26_20h39.57.594,MA Experiment 2,2021.1.2,Win32,60.19744763,,,,,,,,,,
1.477,response_2,longValid,PIPING,APPLIANCE,0,6,6,5,1,NONSENSE,OASIS,short,resources/sound/prac_trials/practice_cue_human5.mp3,60fcad7e0f438d71661601e3,21,Female,Right handed,2021-07-26_20h39.57.594,MA Experiment 2,2021.1.2,Win32,60.19744763,,,,,,,,,,
1.566,response_1,longValid,STOCKING,LECTURER,0,7,7,0,1,AARDVARK,FALLACY,short,resources/sound/prac_trials/practice_cue0.mp3,60fcad7e0f438d71661601e3,21,Female,Right handed,2021-07-26_20h39.57.594,MA Experiment 2,2021.1.2,Win32,60.19744763,,,,,,,,,,
1.2958,response_2,longValid,FAIRY,MOLECULE,0,8,8,4,1,FIZZY,ELECTRIC,short,resources/sound/prac_trials/practice_cue4.mp3,60fcad7e0f438d71661601e3,21,Female,Right handed,2021-07-26_20h39.57.594,MA Experiment 2,2021.1.2,Win32,60.19744763,,,,,,,,,,
1.2101,response_2,shortFoil,TUMBLE,INSTRUMENT,0,9,9,2,1,RECENT,TOBACCO,short,resources/sound/prac_trials/practice_cue2.mp3,60fcad7e0f438d71661601e3,21,Female,Right handed,2021-07-26_20h39.57.594,MA Experiment 2,2021.1.2,Win32,60.19744763,,,,,,,,,,
1.3957,response_2,shortValid,ANCHOR,MINISTER,0,10,10,9,1,GRUMPY,LABYRINTH,long,resources/sound/prac_trials/practice_cue_human9.mp3,60fcad7e0f438d71661601e3,21,Female,Right handed,2021-07-26_20h39.57.594,MA Experiment 2,2021.1.2,Win32,60.19744763,,,,,,,,,,
1.3117,response_2,longValid,LEADER,REFEREE,0,11,11,3,1,EAGER,QUALIFY,short,resources/sound/prac_trials/practice_cue_human3.mp3,60fcad7e0f438d71661601e3,21,Female,Right handed,2021-07-26_20h39.57.594,MA Experiment 2,2021.1.2,Win32,60.19744763,,,,,,,,,,
1.4796,response_1,shortValid,NURSERY,CABINET,,,,,,BRAINSTORM,GREEN NEEDLE,short,resources/sound/trials/audio_stim_original.mp3,60fcad7e0f438d71661601e3,21,Female,Right handed,2021-07-26_20h39.57.594,MA Experiment 2,2021.1.2,Win32,60.19744763,0,0,0,16,1,,,,,
2.0655,response_1,shortValid,CRYSTAL,PROJECTOR,,,,,,PAINTER,VEHICLE,long,resources/sound/trials/audio_stim_human47.mp3,60fcad7e0f438d71661601e3,21,Female,Right handed,2021-07-26_20h39.57.594,MA Experiment 2,2021.1.2,Win32,60.19744763,0,1,1,28,1,,,,,
1.5624,response_2,shortFoil,RUSTY,ALPHABET,,,,,,DAYLIGHT,MATERIAL,long,resources/sound/trials/audio_stim_human42.mp3,60fcad7e0f438d71661601e3,21,Female,Right handed,2021-07-26_20h39.57.594,MA Experiment 2,2021.1.2,Win32,60.19744763,0,2,2,26,1,,,,,
1.1461,response_2,,RABBI,STRAWBERRY,,,,,,JOURNAL,ROBBERY,short,resources/sound/catchTrials/audio_control_human_project02.mp3,60fcad7e0f438d71661601e3,21,Female,Right handed,2021-07-26_20h39.57.594,MA Experiment 2,2021.1.2,Win32,60.19744763,,,,,,0,4,4,13,1
1.3798,response_1,shortValid,MISTRESS,CITIZEN,,,,,,BRAINSTORM,GREEN NEEDLE,long,resources/sound/trials/audio_stim_original.mp3,60fcad7e0f438d71661601e3,21,Female,Right handed,2021-07-26_20h39.57.594,MA Experiment 2,2021.1.2,Win32,60.19744763,0,3,3,33,1,,,,,
1.6279,response_1,longFoil,HAMSTER,GALLERY,,,,,,MARBLE,CUSTOMER,long,resources/sound/trials/audio_stim_comp65.mp3,60fcad7e0f438d71661601e3,21,Female,Right handed,2021-07-26_20h39.57.594,MA Experiment 2,2021.1.2,Win32,60.19744763,0,4,4,21,1,,,,,
1.6952,response_1,shortFoil,CANTEEN,MESSENGER,,,,,,WORKER,VISITOR,long,resources/sound/trials/audio_stim_comp17.mp3,60fcad7e0f438d71661601e3,21,Female,Right handed,2021-07-26_20h39.57.594,MA Experiment 2,2021.1.2,Win32,60.19744763,0,5,5,23,1,,,,,
0.9454,response_2,shortValid,MUSCLE,SPECIALIST,,,,,,ROBBER,RATTLESNAKE,long,resources/sound/trials/audio_stim_human64.mp3,60fcad7e0f438d71661601e3,21,Female,Right handed,2021-07-26_20h39.57.594,MA Experiment 2,2021.1.2,Win32,60.19744763,0,6,6,32,1,,,,,
1.6449,response_2,,POLO,CIGARETTE,,,,,,ICY,JITTERBUG,long,resources/sound/catchTrials/audio_control_comp_project08.mp3,60fcad7e0f438d71661601e3,21,Female,Right handed,2021-07-26_20h39.57.594,MA Experiment 2,2021.1.2,Win32,60.19744763,,,,,,0,20,20,23,1
1.3428,response_1,shortFoil,BERRY,NEWSPAPER,,,,,,WORKER,VISITOR,short,resources/sound/trials/audio_stim_comp17.mp3,60fcad7e0f438d71661601e3,21,Female,Right handed,2021-07-26_20h39.57.594,MA Experiment 2,2021.1.2,Win32,60.19744763,0,7,7,6,1,,,,,
2.6111,response_1,longFoil,SEGMENT,ABDOMEN,,,,,,RECEIPT,LIMOUSINE,long,resources/sound/trials/audio_stim_comp40.mp3,60fcad7e0f438d71661601e3,21,Female,Right handed,2021-07-26_20h39.57.594,MA Experiment 2,2021.1.2,Win32,60.19744763,0,8,8,19,1,,,,,
1.3127,response_2,longValid,NEIGHBOUR,JANITOR,,,,,,SACRED,GALAXY,short,resources/sound/trials/audio_stim_comp1.mp3,60fcad7e0f438d71661601e3,21,Female,Right handed,2021-07-26_20h39.57.594,MA Experiment 2,2021.1.2,Win32,60.19744763,0,9,9,7,1,,,,,
1.3621,response_1,longValid,GRADUATE,ORNAMENT,,,,,,PAINTER,VEHICLE,short,resources/sound/trials/audio_stim_human47.mp3,60fcad7e0f438d71661601e3,21,Female,Right handed,2021-07-26_20h39.57.594,MA Experiment 2,2021.1.2,Win32,60.19744763,0,10,10,11,1,,,,,
1.4806,response_1,,EARTHWORM,AVENUE,,,,,,VIOLET,LUBRICANT,short,resources/sound/catchTrials/audio_control_human_project07.mp3,60fcad7e0f438d71661601e3,21,Female,Right handed,2021-07-26_20h39.57.594,MA Experiment 2,2021.1.2,Win32,60.19744763,,,,,,0,25,25,12,1
1.5796,response_1,longValid,TWEEZER,UMBRELLA,,,,,,RUBBER,PROPERTY,long,resources/sound/trials/audio_stim_human0.mp3,60fcad7e0f438d71661601e3,21,Female,Right handed,2021-07-26_20h39.57.594,MA Experiment 2,2021.1.2,Win32,60.19744763,0,11,11,29,1,,,,,
1.0794,response_1,longValid,TRAITOR,GOVERNMENT,,,,,,DRIZZLE,CARDINAL,long,resources/sound/trials/audio_stim_comp69.mp3,60fcad7e0f438d71661601e3,21,Female,Right handed,2021-07-26_20h39.57.594,MA Experiment 2,2021.1.2,Win32,60.19744763,0,12,12,17,1,,,,,
1.7287,response_2,shortFoil,MURDER,CANDLELIGHT,,,,,,RUBBER,PROPERTY,short,resources/sound/trials/audio_stim_human0.mp3,60fcad7e0f438d71661601e3,21,Female,Right handed,2021-07-26_20h39.57.594,MA Experiment 2,2021.1.2,Win32,60.19744763,0,13,13,12,1,,,,,
1.3455,response_1,longValid,CIGAR,CAPITAL,,,,,,WHISTLE,TREASURER,short,resources/sound/trials/audio_stim_comp12.mp3,60fcad7e0f438d71661601e3,21,Female,Right handed,2021-07-26_20h39.57.594,MA Experiment 2,2021.1.2,Win32,60.19744763,0,14,14,3,1,,,,,
1.9429,response_2,,ACRE,INJURY,,,,,,SPINACH,APRICOT,long,resources/sound/catchTrials/audio_control_comp_project18.mp3,60fcad7e0f438d71661601e3,21,Female,Right handed,2021-07-26_20h39.57.594,MA Experiment 2,2021.1.2,Win32,60.19744763,,,,,,0,15,15,21,1
1.53,response_1,longFoil,LOBSTER,BEVERAGE,,,,,,DRIZZLE,CARDINAL,short,resources/sound/trials/audio_stim_comp69.mp3,60fcad7e0f438d71661601e3,21,Female,Right handed,2021-07-26_20h39.57.594,MA Experiment 2,2021.1.2,Win32,60.19744763,0,15,15,0,1,,,,,
0.9137,response_1,shortFoil,VALLEY,CROCODILE,,,,,,MARBLE,CUSTOMER,short,resources/sound/trials/audio_stim_comp65.mp3,60fcad7e0f438d71661601e3,21,Female,Right handed,2021-07-26_20h39.57.594,MA Experiment 2,2021.1.2,Win32,60.19744763,0,16,16,4,1,,,,,
1.279,response_1,longValid,UNCLE,POLIO,,,,,,ATHLETE,IVORY,short,resources/sound/trials/audio_stim_comp57.mp3,60fcad7e0f438d71661601e3,21,Female,Right handed,2021-07-26_20h39.57.594,MA Experiment 2,2021.1.2,Win32,60.19744763,0,17,17,5,1,,,,,
1.3952,response_1,shortFoil,PERSON,CATHEDRAL,,,,,,RECEIPT,LIMOUSINE,short,resources/sound/trials/audio_stim_comp40.mp3,60fcad7e0f438d71661601e3,21,Female,Right handed,2021-07-26_20h39.57.594,MA Experiment 2,2021.1.2,Win32,60.19744763,0,18,18,2,1,,,,,
1.2626,response_1,,VAPOUR,VINEGAR,,,,,,VIOLET,LUBRICANT,long,resources/sound/catchTrials/audio_control_human_project07.mp3,60fcad7e0f438d71661601e3,21,Female,Right handed,2021-07-26_20h39.57.594,MA Experiment 2,2021.1.2,Win32,60.19744763,,,,,,0,31,31,28,1
1.5116,response_2,longFoil,MEDICINE,ICICLE,,,,,,MINER,EMERALD,long,resources/sound/trials/audio_stim_comp6.mp3,60fcad7e0f438d71661601e3,21,Female,Right handed,2021-07-26_20h39.57.594,MA Experiment 2,2021.1.2,Win32,60.19744763,0,19,19,18,1,,,,,
1.2457,response_1,shortValid,PRINCESS,DIAMOND,,,,,,CONCRETE,ENEMY,long,resources/sound/trials/audio_stim_human67.mp3,60fcad7e0f438d71661601e3,21,Female,Right handed,2021-07-26_20h39.57.594,MA Experiment 2,2021.1.2,Win32,60.19744763,0,20,20,27,1,,,,,
1.547,response_2,shortValid,BUTTER,MOSQUITO,,,,,,MINER,EMERALD,short,resources/sound/trials/audio_stim_comp6.mp3,60fcad7e0f438d71661601e3,21,Female,Right handed,2021-07-26_20h39.57.594,MA Experiment 2,2021.1.2,Win32,60.19744763,0,21,21,1,1,,,,,
1.2284,response_1,shortValid,KETTLE,HOSPITAL,,,,,,DAYLIGHT,MATERIAL,short,resources/sound/trials/audio_stim_human42.mp3,60fcad7e0f438d71661601e3,21,Female,Right handed,2021-07-26_20h39.57.594,MA Experiment 2,2021.1.2,Win32,60.19744763,0,22,22,9,1,,,,,
1.2286,response_2,,DUEL,GINGERBREAD,,,,,,CORNER,ENGINEER,long,resources/sound/catchTrials/audio_control_human_project14.mp3,60fcad7e0f438d71661601e3,21,Female,Right handed,2021-07-26_20h39.57.594,MA Experiment 2,2021.1.2,Win32,60.19744763,,,,,,0,17,17,26,1
1.762,response_1,shortValid,EVENING,MINERAL,,,,,,WHISTLE,TREASURER,long,resources/sound/trials/audio_stim_comp12.mp3,60fcad7e0f438d71661601e3,21,Female,Right handed,2021-07-26_20h39.57.594,MA Experiment 2,2021.1.2,Win32,60.19744763,0,23,23,20,1,,,,,
1.8126,response_1,shortFoil,GIRDLE,MICROSCOPE,,,,,,HARDWARE,OVERCOAT,long,resources/sound/trials/audio_stim_human35.mp3,60fcad7e0f438d71661601e3,21,Female,Right handed,2021-07-26_20h39.57.594,MA Experiment 2,2021.1.2,Win32,60.19744763,0,24,24,25,1,,,,,
1.2279,response_2,longValid,MEASLES,PROPELLER,,,,,,MINER,EMERALD,short,resources/sound/trials/audio_stim_human6.mp3,60fcad7e0f438d71661601e3,21,Female,Right handed,2021-07-26_20h39.57.594,MA Experiment 2,2021.1.2,Win32,60.19744763,0,25,25,13,1,,,,,
1.1467,response_2,longValid,SHEEPSKIN,HEADQUARTERS,,,,,,SACRED,GALAXY,long,resources/sound/trials/audio_stim_comp1.mp3,60fcad7e0f438d71661601e3,21,Female,Right handed,2021-07-26_20h39.57.594,MA Experiment 2,2021.1.2,Win32,60.19744763,0,26,26,24,1,,,,,
1.5292,response_2,,HAMMER,INSTITUTE,,,,,,HOBBY,COLONY,long,resources/sound/catchTrials/audio_control_human_project04.mp3,60fcad7e0f438d71661601e3,21,Female,Right handed,2021-07-26_20h39.57.594,MA Experiment 2,2021.1.2,Win32,60.19744763,,,,,,0,19,19,27,1
1.0284,response_2,shortFoil,WALRUS,FACTORY,,,,,,HARDWARE,OVERCOAT,short,resources/sound/trials/audio_stim_human35.mp3,60fcad7e0f438d71661601e3,21,Female,Right handed,2021-07-26_20h39.57.594,MA Experiment 2,2021.1.2,Win32,60.19744763,0,27,27,8,1,,,,,
1.2452,response_2,longValid,MURAL,CARNATION,,,,,,MINER,EMERALD,long,resources/sound/trials/audio_stim_human6.mp3,60fcad7e0f438d71661601e3,21,Female,Right handed,2021-07-26_20h39.57.594,MA Experiment 2,2021.1.2,Win32,60.19744763,0,28,28,30,1,,,,,
1.9295,response_2,longFoil,KERNEL,ASBESTOS,,,,,,PARTY,SANCTUARY,short,resources/sound/trials/audio_stim_human50.mp3,60fcad7e0f438d71661601e3,21,Female,Right handed,2021-07-26_20h39.57.594,MA Experiment 2,2021.1.2,Win32,60.19744763,0,29,29,14,1,,,,,
1.1458,response_1,shortFoil,JURY,HURRICANE,,,,,,CONCRETE,ENEMY,short,resources/sound/trials/audio_stim_human67.mp3,60fcad7e0f438d71661601e3,21,Female,Right handed,2021-07-26_20h39.57.594,MA Experiment 2,2021.1.2,Win32,60.19744763,0,30,30,10,1,,,,,
1.1948,response_2,,NAPKIN,ATHLETICS,,,,,,CORNER,ENGINEER,long,resources/sound/catchTrials/audio_control_comp_project14.mp3,60fcad7e0f438d71661601e3,21,Female,Right handed,2021-07-26_20h39.57.594,MA Experiment 2,2021.1.2,Win32,60.19744763,,,,,,0,0,0,17,1
0.9327,response_2,longValid,DIAL,FAMILY,,,,,,ROBBER,RATTLESNAKE,short,resources/sound/trials/audio_stim_human64.mp3,60fcad7e0f438d71661601e3,21,Female,Right handed,2021-07-26_20h39.57.594,MA Experiment 2,2021.1.2,Win32,60.19744763,0,31,31,15,1,,,,,
1.0952,response_2,shortValid,SCOOTER,ALCOHOL,,,,,,PARTY,SANCTUARY,long,resources/sound/trials/audio_stim_human50.mp3,60fcad7e0f438d71661601e3,21,Female,Right handed,2021-07-26_20h39.57.594,MA Experiment 2,2021.1.2,Win32,60.19744763,0,32,32,31,1,,,,,
1.3289,response_1,shortValid,FERTILE,ACROBAT,,,,,,ATHLETE,IVORY,long,resources/sound/trials/audio_stim_comp57.mp3,60fcad7e0f438d71661601e3,21,Female,Right handed,2021-07-26_20h39.57.594,MA Experiment 2,2021.1.2,Win32,60.19744763,0,33,33,22,1,,,,,
1.2261,response_2,longValid,SOFA,FISHERMAN,,,,,,WORKER,VISITOR,short,resources/sound/trials/audio_stim_comp17.mp3,60fcad7e0f438d71661601e3,21,Female,Right handed,2021-07-26_20h39.57.594,MA Experiment 2,2021.1.2,Win32,60.19744763,1,0,34,6,1,,,,,
1.0964,response_1,longFoil,BISHOP,CLARINET,,,,,,DRIZZLE,CARDINAL,long,resources/sound/trials/audio_stim_comp69.mp3,60fcad7e0f438d71661601e3,21,Female,Right handed,2021-07-26_20h39.57.594,MA Experiment 2,2021.1.2,Win32,60.19744763,1,1,35,17,1,,,,,
1.6965,response_1,shortFoil,NATIVE,NEIGHBOURHOOD,,,,,,DAYLIGHT,MATERIAL,short,resources/sound/trials/audio_stim_human42.mp3,60fcad7e0f438d71661601e3,21,Female,Right handed,2021-07-26_20h39.57.594,MA Experiment 2,2021.1.2,Win32,60.19744763,1,2,36,9,1,,,,,
1.3461,response_2,,INCOME,MONUMENT,,,,,,IRIS,VIOLIN,short,resources/sound/catchTrials/audio_control_human_project12.mp3,60fcad7e0f438d71661601e3,21,Female,Right handed,2021-07-26_20h39.57.594,MA Experiment 2,2021.1.2,Win32,60.19744763,,,,,,0,10,10,8,1
1.4942,response_1,longFoil,DIVING,MECHANIC,,,,,,ATHLETE,IVORY,long,resources/sound/trials/audio_stim_comp57.mp3,60fcad7e0f438d71661601e3,21,Female,Right handed,2021-07-26_20h39.57.594,MA Experiment 2,2021.1.2,Win32,60.19744763,1,3,37,22,1,,,,,
1.1131,response_2,longValid,HARBOUR,HANDKERCHIEF,,,,,,BRAINSTORM,GREEN NEEDLE,long,resources/sound/trials/audio_stim_original.mp3,60fcad7e0f438d71661601e3,21,Female,Right handed,2021-07-26_20h39.57.594,MA Experiment 2,2021.1.2,Win32,60.19744763,1,4,38,33,1,,,,,
0.7125,response_2,longFoil,INVOICE,POLICEMAN,,,,,,MINER,EMERALD,short,resources/sound/trials/audio_stim_comp6.mp3,60fcad7e0f438d71661601e3,21,Female,Right handed,2021-07-26_20h39.57.594,MA Experiment 2,2021.1.2,Win32,60.19744763,1,5,39,1,1,,,,,
1.3787,response_2,longFoil,CHIPMUNK,COMMITTEE,,,,,,PARTY,SANCTUARY,long,resources/sound/trials/audio_stim_human50.mp3,60fcad7e0f438d71661601e3,21,Female,Right handed,2021-07-26_20h39.57.594,MA Experiment 2,2021.1.2,Win32,60.19744763,1,6,40,31,1,,,,,
0.812,response_2,,SODA,CORRIDOR,,,,,,ICY,JITTERBUG,short,resources/sound/catchTrials/audio_control_comp_project08.mp3,60fcad7e0f438d71661601e3,21,Female,Right handed,2021-07-26_20h39.57.594,MA Experiment 2,2021.1.2,Win32,60.19744763,,,,,,0,11,11,7,1
1.01,response_2,shortFoil,DECOY,EMULSION,,,,,,ROBBER,RATTLESNAKE,long,resources/sound/trials/audio_stim_human64.mp3,60fcad7e0f438d71661601e3,21,Female,Right handed,2021-07-26_20h39.57.594,MA Experiment 2,2021.1.2,Win32,60.19744763,1,7,41,32,1,,,,,
1.1624,response_2,longFoil,SINGER,FIREWOOD,,,,,,RUBBER,PROPERTY,short,resources/sound/trials/audio_stim_human0.mp3,60fcad7e0f438d71661601e3,21,Female,Right handed,2021-07-26_20h39.57.594,MA Experiment 2,2021.1.2,Win32,60.19744763,1,8,42,12,1,,,,,
0.7786,response_1,shortValid,DANCER,LEMONADE,,,,,,DRIZZLE,CARDINAL,short,resources/sound/trials/audio_stim_comp69.mp3,60fcad7e0f438d71661601e3,21,Female,Right handed,2021-07-26_20h39.57.594,MA Experiment 2,2021.1.2,Win32,60.19744763,1,9,43,0,1,,,,,
1.114,response_1,longFoil,WAFER,GORILLA,,,,,,PAINTER,VEHICLE,long,resources/sound/trials/audio_stim_human47.mp3,60fcad7e0f438d71661601e3,21,Female,Right handed,2021-07-26_20h39.57.594,MA Experiment 2,2021.1.2,Win32,60.19744763,1,10,44,28,1,,,,,
1.3169,response_2,,BURNER,SETTLEMENT,,,,,,JOURNAL,ROBBERY,long,resources/sound/catchTrials/audio_control_human_project02.mp3,60fcad7e0f438d71661601e3,21,Female,Right handed,2021-07-26_20h39.57.594,MA Experiment 2,2021.1.2,Win32,60.19744763,,,,,,0,18,18,29,1
1.0334,response_1,longFoil,PODIUM,ENAMEL,,,,,,CONCRETE,ENEMY,short,resources/sound/trials/audio_stim_human67.mp3,60fcad7e0f438d71661601e3,21,Female,Right handed,2021-07-26_20h39.57.594,MA Experiment 2,2021.1.2,Win32,60.19744763,1,11,45,10,1,,,,,
1.146,response_2,shortValid,PIANO,BUTTERFLY,,,,,,HARDWARE,OVERCOAT,long,resources/sound/trials/audio_stim_human35.mp3,60fcad7e0f438d71661601e3,21,Female,Right handed,2021-07-26_20h39.57.594,MA Experiment 2,2021.1.2,Win32,60.19744763,1,12,46,25,1,,,,,
1.5457,response_2,shortValid,WINDOW,ENVELOPE,,,,,,MINER,EMERALD,short,resources/sound/trials/audio_stim_human6.mp3,60fcad7e0f438d71661601e3,21,Female,Right handed,2021-07-26_20h39.57.594,MA Experiment 2,2021.1.2,Win32,60.19744763,1,13,47,13,1,,,,,
1.1626,response_1,shortValid,FEVER,MEDICINE,,,,,,DAYLIGHT,MATERIAL,long,resources/sound/trials/audio_stim_human42.mp3,60fcad7e0f438d71661601e3,21,Female,Right handed,2021-07-26_20h39.57.594,MA Experiment 2,2021.1.2,Win32,60.19744763,1,14,48,26,1,,,,,
1.0287,response_2,,BEETLE,PROFESSOR,,,,,,IRIS,VIOLIN,long,resources/sound/catchTrials/audio_control_comp_project12.mp3,60fcad7e0f438d71661601e3,21,Female,Right handed,2021-07-26_20h39.57.594,MA Experiment 2,2021.1.2,Win32,60.19744763,,,,,,0,24,24,20,1
1.3797,response_2,longValid,PATIENT,TEMPERATURE,,,,,,WHISTLE,TREASURER,long,resources/sound/trials/audio_stim_comp12.mp3,60fcad7e0f438d71661601e3,21,Female,Right handed,2021-07-26_20h39.57.594,MA Experiment 2,2021.1.2,Win32,60.19744763,1,15,49,20,1,,,,,
1.9635,response_1,longFoil,OFFICE,PHOTOGRAPH,,,,,,WHISTLE,TREASURER,short,resources/sound/trials/audio_stim_comp12.mp3,60fcad7e0f438d71661601e3,21,Female,Right handed,2021-07-26_20h39.57.594,MA Experiment 2,2021.1.2,Win32,60.19744763,1,16,50,3,1,,,,,
1.3798,response_1,shortValid,WIRE,INSTRUCTOR,,,,,,SACRED,GALAXY,long,resources/sound/trials/audio_stim_comp1.mp3,60fcad7e0f438d71661601e3,21,Female,Right handed,2021-07-26_20h39.57.594,MA Experiment 2,2021.1.2,Win32,60.19744763,1,17,51,24,1,,,,,
0.8458,response_2,longValid,HURDLE,DISSECTION,,,,,,RECEIPT,LIMOUSINE,short,resources/sound/trials/audio_stim_comp40.mp3,60fcad7e0f438d71661601e3,21,Female,Right handed,2021-07-26_20h39.57.594,MA Experiment 2,2021.1.2,Win32,60.19744763,1,18,52,2,1,,,,,
1.5456,response_2,,VESSEL,CINNAMON,,,,,,IRIS,VIOLIN,short,resources/sound/catchTrials/audio_control_comp_project12.mp3,60fcad7e0f438d71661601e3,21,Female,Right handed,2021-07-26_20h39.57.594,MA Experiment 2,2021.1.2,Win32,60.19744763,,,,,,0,8,8,4,1
1.5791,response_2,shortFoil,MORNING,INFECTION,,,,,,MINER,EMERALD,long,resources/sound/trials/audio_stim_comp6.mp3,60fcad7e0f438d71661601e3,21,Female,Right handed,2021-07-26_20h39.57.594,MA Experiment 2,2021.1.2,Win32,60.19744763,1,19,53,18,1,,,,,
1.167,response_1,shortValid,LIGHTNING,CHOCOLATE,,,,,,MARBLE,CUSTOMER,short,resources/sound/trials/audio_stim_comp65.mp3,60fcad7e0f438d71661601e3,21,Female,Right handed,2021-07-26_20h39.57.594,MA Experiment 2,2021.1.2,Win32,60.19744763,1,20,54,4,1,,,,,
1.2782,response_1,shortFoil,SULPHUR,GYMNASTICS,,,,,,ATHLETE,IVORY,short,resources/sound/trials/audio_stim_comp57.mp3,60fcad7e0f438d71661601e3,21,Female,Right handed,2021-07-26_20h39.57.594,MA Experiment 2,2021.1.2,Win32,60.19744763,1,21,55,5,1,,,,,
0.6306,response_1,shortFoil,FATHER,INDUSTRY,,,,,,PARTY,SANCTUARY,short,resources/sound/trials/audio_stim_human50.mp3,60fcad7e0f438d71661601e3,21,Female,Right handed,2021-07-26_20h39.57.594,MA Experiment 2,2021.1.2,Win32,60.19744763,1,22,56,14,1,,,,,
1.445,response_2,,CURFEW,FURNITURE,,,,,,BORDER,ALGEBRA,short,resources/sound/catchTrials/audio_control_comp_project00.mp3,60fcad7e0f438d71661601e3,21,Female,Right handed,2021-07-26_20h39.57.594,MA Experiment 2,2021.1.2,Win32,60.19744763,,,,,,0,13,13,0,1
1.2277,response_2,shortValid,DOORWAY,ADMIRAL,,,,,,RECEIPT,LIMOUSINE,long,resources/sound/trials/audio_stim_comp40.mp3,60fcad7e0f438d71661601e3,21,Female,Right handed,2021-07-26_20h39.57.594,MA Experiment 2,2021.1.2,Win32,60.19744763,1,23,57,19,1,,,,,
1.4625,response_2,shortValid,KENNEL,GRASSHOPPER,,,,,,HARDWARE,OVERCOAT,short,resources/sound/trials/audio_stim_human35.mp3,60fcad7e0f438d71661601e3,21,Female,Right handed,2021-07-26_20h39.57.594,MA Experiment 2,2021.1.2,Win32,60.19744763,1,24,58,8,1,,,,,
0.7428,response_2,shortValid,LIQUID,MERCURY,,,,,,ROBBER,RATTLESNAKE,short,resources/sound/trials/audio_stim_human64.mp3,60fcad7e0f438d71661601e3,21,Female,Right handed,2021-07-26_20h39.57.594,MA Experiment 2,2021.1.2,Win32,60.19744763,1,25,59,15,1,,,,,
0.7959,response_2,longFoil,WRITING,PHYSICIAN,,,,,,MINER,EMERALD,long,resources/sound/trials/audio_stim_human6.mp3,60fcad7e0f438d71661601e3,21,Female,Right handed,2021-07-26_20h39.57.594,MA Experiment 2,2021.1.2,Win32,60.19744763,1,26,60,30,1,,,,,
1.1289,response_2,,CABIN,INTERVIEW,,,,,,CORNER,ENGINEER,short,resources/sound/catchTrials/audio_control_human_project14.mp3,60fcad7e0f438d71661601e3,21,Female,Right handed,2021-07-26_20h39.57.594,MA Experiment 2,2021.1.2,Win32,60.19744763,,,,,,0,5,5,10,1
0.8632,response_1,shortFoil,VILLAGE,OPENING,,,,,,CONCRETE,ENEMY,long,resources/sound/trials/audio_stim_human67.mp3,60fcad7e0f438d71661601e3,21,Female,Right handed,2021-07-26_20h39.57.594,MA Experiment 2,2021.1.2,Win32,60.19744763,1,27,61,27,1,,,,,
1.0771,response_1,shortValid,NECKLACE,HONEYMOON,,,,,,WORKER,VISITOR,long,resources/sound/trials/audio_stim_comp17.mp3,60fcad7e0f438d71661601e3,21,Female,Right handed,2021-07-26_20h39.57.594,MA Experiment 2,2021.1.2,Win32,60.19744763,1,28,62,23,1,,,,,
1.5174,response_1,longFoil,OLIVE,OXYGEN,,,,,,PAINTER,VEHICLE,short,resources/sound/trials/audio_stim_human47.mp3,60fcad7e0f438d71661601e3,21,Female,Right handed,2021-07-26_20h39.57.594,MA Experiment 2,2021.1.2,Win32,60.19744763,1,29,63,11,1,,,,,
1.2961,response_1,shortFoil,FOREARM,CONVENTION,,,,,,BRAINSTORM,GREEN NEEDLE,short,resources/sound/trials/audio_stim_original.mp3,60fcad7e0f438d71661601e3,21,Female,Right handed,2021-07-26_20h39.57.594,MA Experiment 2,2021.1.2,Win32,60.19744763,1,30,64,16,1,,,,,
1.3301,response_2,,CAPTAIN,TANGERINE,,,,,,HOBBY,COLONY,long,resources/sound/catchTrials/audio_control_comp_project04.mp3,60fcad7e0f438d71661601e3,21,Female,Right handed,2021-07-26_20h39.57.594,MA Experiment 2,2021.1.2,Win32,60.19744763,,,,,,0,28,28,18,1
1.2126,response_1,longFoil,TORTURE,HEROIN,,,,,,SACRED,GALAXY,short,resources/sound/trials/audio_stim_comp1.mp3,60fcad7e0f438d71661601e3,21,Female,Right handed,2021-07-26_20h39.57.594,MA Experiment 2,2021.1.2,Win32,60.19744763,1,31,65,7,1,,,,,
1.7829,response_1,shortFoil,SHOULDER,CAMERA,,,,,,MARBLE,CUSTOMER,long,resources/sound/trials/audio_stim_comp65.mp3,60fcad7e0f438d71661601e3,21,Female,Right handed,2021-07-26_20h39.57.594,MA Experiment 2,2021.1.2,Win32,60.19744763,1,32,66,21,1,,,,,
1.3428,response_2,longFoil,STATION,RETAILER,,,,,,RUBBER,PROPERTY,long,resources/sound/trials/audio_stim_human0.mp3,60fcad7e0f438d71661601e3,21,Female,Right handed,2021-07-26_20h39.57.594,MA Experiment 2,2021.1.2,Win32,60.19744763,1,33,67,29,1,,,,,
1.1955,response_2,longFoil,PICTURE,SAXOPHONE,,,,,,SACRED,GALAXY,long,resources/sound/trials/audio_stim_comp1.mp3,60fcad7e0f438d71661601e3,21,Female,Right handed,2021-07-26_20h39.57.594,MA Experiment 2,2021.1.2,Win32,60.19744763,2,0,68,24,1,,,,,
2.113,response_2,longValid,PODIUM,HOSPITAL,,,,,,PARTY,SANCTUARY,short,resources/sound/trials/audio_stim_human50.mp3,60fcad7e0f438d71661601e3,21,Female,Right handed,2021-07-26_20h39.57.594,MA Experiment 2,2021.1.2,Win32,60.19744763,2,1,69,14,1,,,,,
1.2304,response_2,longValid,HURDLE,HEADQUARTERS,,,,,,MINER,EMERALD,short,resources/sound/trials/audio_stim_comp6.mp3,60fcad7e0f438d71661601e3,21,Female,Right handed,2021-07-26_20h39.57.594,MA Experiment 2,2021.1.2,Win32,60.19744763,2,2,70,1,1,,,,,
0.7467,response_2,,MUSCLE,ALCOHOL,,,,,,NAVY,RECTANGLE,short,resources/sound/catchTrials/audio_control_comp_project06.mp3,60fcad7e0f438d71661601e3,21,Female,Right handed,2021-07-26_20h39.57.594,MA Experiment 2,2021.1.2,Win32,60.19744763,,,,,,0,6,6,6,1
1.2799,response_2,longFoil,SHOULDER,RETAILER,,,,,,HARDWARE,OVERCOAT,long,resources/sound/trials/audio_stim_human35.mp3,60fcad7e0f438d71661601e3,21,Female,Right handed,2021-07-26_20h39.57.594,MA Experiment 2,2021.1.2,Win32,60.19744763,2,3,71,25,1,,,,,
0.5791,response_1,shortValid,WAFER,SPECIALIST,,,,,,ATHLETE,IVORY,short,resources/sound/trials/audio_stim_comp57.mp3,60fcad7e0f438d71661601e3,21,Female,Right handed,2021-07-26_20h39.57.594,MA Experiment 2,2021.1.2,Win32,60.19744763,2,4,72,5,1,,,,,
0.7292,response_2,longValid,PICTURE,CROCODILE,,,,,,PARTY,SANCTUARY,long,resources/sound/trials/audio_stim_human50.mp3,60fcad7e0f438d71661601e3,21,Female,Right handed,2021-07-26_20h39.57.594,MA Experiment 2,2021.1.2,Win32,60.19744763,2,5,73,31,1,,,,,
0.8954,response_1,longValid,MORNING,MINISTER,,,,,,ATHLETE,IVORY,long,resources/sound/trials/audio_stim_comp57.mp3,60fcad7e0f438d71661601e3,21,Female,Right handed,2021-07-26_20h39.57.594,MA Experiment 2,2021.1.2,Win32,60.19744763,2,6,74,22,1,,,,,
0.763,response_1,,FERTILE,HANDKERCHIEF,,,,,,VIOLET,LUBRICANT,short,resources/sound/catchTrials/audio_control_comp_project07.mp3,60fcad7e0f438d71661601e3,21,Female,Right handed,2021-07-26_20h39.57.594,MA Experiment 2,2021.1.2,Win32,60.19744763,,,,,,0,12,12,3,1
1.6783,response_2,longFoil,VALLEY,GRASSHOPPER,,,,,,ROBBER,RATTLESNAKE,short,resources/sound/trials/audio_stim_human64.mp3,60fcad7e0f438d71661601e3,21,Female,Right handed,2021-07-26_20h39.57.594,MA Experiment 2,2021.1.2,Win32,60.19744763,2,7,75,15,1,,,,,
0.7792,response_2,shortFoil,LIGHTNING,CONVENTION,,,,,,RECEIPT,LIMOUSINE,long,resources/sound/trials/audio_stim_comp40.mp3,60fcad7e0f438d71661601e3,21,Female,Right handed,2021-07-26_20h39.57.594,MA Experiment 2,2021.1.2,Win32,60.19744763,2,8,76,19,1,,,,,
0.4431,response_2,longValid,MURAL,PHOTOGRAPH,,,,,,MINER,EMERALD,long,resources/sound/trials/audio_stim_comp6.mp3,60fcad7e0f438d71661601e3,21,Female,Right handed,2021-07-26_20h39.57.594,MA Experiment 2,2021.1.2,Win32,60.19744763,2,9,77,18,1,,,,,
0.9628,response_2,longValid,CAPTAIN,GINGERBREAD,,,,,,WORKER,VISITOR,long,resources/sound/trials/audio_stim_comp17.mp3,60fcad7e0f438d71661601e3,21,Female,Right handed,2021-07-26_20h39.57.594,MA Experiment 2,2021.1.2,Win32,60.19744763,2,10,78,23,1,,,,,
0.9147,response_1,,HAMSTER,ACROBAT,,,,,,VIOLET,LUBRICANT,long,resources/sound/catchTrials/audio_control_comp_project07.mp3,60fcad7e0f438d71661601e3,21,Female,Right handed,2021-07-26_20h39.57.594,MA Experiment 2,2021.1.2,Win32,60.19744763,,,,,,0,16,16,19,1
0.6659,response_1,longValid,TEMPLE,MICROSCOPE,,,,,,PAINTER,VEHICLE,long,resources/sound/trials/audio_stim_human47.mp3,60fcad7e0f438d71661601e3,21,Female,Right handed,2021-07-26_20h39.57.594,MA Experiment 2,2021.1.2,Win32,60.19744763,2,11,79,28,1,,,,,
0.946,response_2,longValid,FAIRY,CHOCOLATE,,,,,,ROBBER,RATTLESNAKE,long,resources/sound/trials/audio_stim_human64.mp3,60fcad7e0f438d71661601e3,21,Female,Right handed,2021-07-26_20h39.57.594,MA Experiment 2,2021.1.2,Win32,60.19744763,2,12,80,32,1,,,,,
1.1165,response_2,shortFoil,POLO,CAPITAL,,,,,,MINER,EMERALD,long,resources/sound/trials/audio_stim_human6.mp3,60fcad7e0f438d71661601e3,21,Female,Right handed,2021-07-26_20h39.57.594,MA Experiment 2,2021.1.2,Win32,60.19744763,2,13,81,30,1,,,,,
0.6457,response_1,longValid,FEVER,NEWSPAPER,,,,,,DAYLIGHT,MATERIAL,long,resources/sound/trials/audio_stim_human42.mp3,60fcad7e0f438d71661601e3,21,Female,Right handed,2021-07-26_20h39.57.594,MA Experiment 2,2021.1.2,Win32,60.19744763,2,14,82,26,1,,,,,
0.8298,response_2,,SADDLE,CORRIDOR,,,,,,SPINACH,APRICOT,short,resources/sound/catchTrials/audio_control_comp_project18.mp3,60fcad7e0f438d71661601e3,21,Female,Right handed,2021-07-26_20h39.57.594,MA Experiment 2,2021.1.2,Win32,60.19744763,,,,,,0,21,21,5,1
1.2795,response_1,shortValid,PERSON,OPENING,,,,,,CONCRETE,ENEMY,short,resources/sound/trials/audio_stim_human67.mp3,60fcad7e0f438d71661601e3,21,Female,Right handed,2021-07-26_20h39.57.594,MA Experiment 2,2021.1.2,Win32,60.19744763,2,15,83,10,1,,,,,
1.2953,response_1,shortFoil,PIPING,DISSECTION,,,,,,PAINTER,VEHICLE,short,resources/sound/trials/audio_stim_human47.mp3,60fcad7e0f438d71661601e3,21,Female,Right handed,2021-07-26_20h39.57.594,MA Experiment 2,2021.1.2,Win32,60.19744763,2,16,84,11,1,,,,,
1.0463,response_1,shortFoil,WIRE,BEVERAGE,,,,,,RUBBER,PROPERTY,long,resources/sound/trials/audio_stim_human0.mp3,60fcad7e0f438d71661601e3,21,Female,Right handed,2021-07-26_20h39.57.594,MA Experiment 2,2021.1.2,Win32,60.19744763,2,17,85,29,1,,,,,
0.4792,response_1,shortFoil,WALRUS,INFECTION,,,,,,WHISTLE,TREASURER,short,resources/sound/trials/audio_stim_comp12.mp3,60fcad7e0f438d71661601e3,21,Female,Right handed,2021-07-26_20h39.57.594,MA Experiment 2,2021.1.2,Win32,60.19744763,2,18,86,3,1,,,,,
1.1136,response_2,,JURY,GORILLA,,,,,,HOBBY,COLONY,short,resources/sound/catchTrials/audio_control_comp_project04.mp3,60fcad7e0f438d71661601e3,21,Female,Right handed,2021-07-26_20h39.57.594,MA Experiment 2,2021.1.2,Win32,60.19744763,,,,,,0,22,22,2,1
1.2659,response_2,longValid,DUEL,CANDLELIGHT,,,,,,DAYLIGHT,MATERIAL,short,resources/sound/trials/audio_stim_human42.mp3,60fcad7e0f438d71661601e3,21,Female,Right handed,2021-07-26_20h39.57.594,MA Experiment 2,2021.1.2,Win32,60.19744763,2,19,87,9,1,,,,,
1.2131,response_2,shortValid,DECOY,FURNITURE,,,,,,DRIZZLE,CARDINAL,long,resources/sound/trials/audio_stim_comp69.mp3,60fcad7e0f438d71661601e3,21,Female,Right handed,2021-07-26_20h39.57.594,MA Experiment 2,2021.1.2,Win32,60.19744763,2,20,88,17,1,,,,,
0.8468,response_1,longFoil,NOVEL,NEIGHBOURHOOD,,,,,,WHISTLE,TREASURER,long,resources/sound/trials/audio_stim_comp12.mp3,60fcad7e0f438d71661601e3,21,Female,Right handed,2021-07-26_20h39.57.594,MA Experiment 2,2021.1.2,Win32,60.19744763,2,21,89,20,1,,,,,
1.213,response_2,longFoil,SINGER,HONEYMOON,,,,,,HARDWARE,OVERCOAT,short,resources/sound/trials/audio_stim_human35.mp3,60fcad7e0f438d71661601e3,21,Female,Right handed,2021-07-26_20h39.57.594,MA Experiment 2,2021.1.2,Win32,60.19744763,2,22,90,8,1,,,,,
0.9952,response_2,,SCOOTER,REFEREE,,,,,,CORNER,ENGINEER,short,resources/sound/catchTrials/audio_control_comp_project14.mp3,60fcad7e0f438d71661601e3,21,Female,Right handed,2021-07-26_20h39.57.594,MA Experiment 2,2021.1.2,Win32,60.19744763,,,,,,0,9,9,1,1
0.9458,response_2,longFoil,PRINCESS,ADMIRAL,,,,,,RECEIPT,LIMOUSINE,short,resources/sound/trials/audio_stim_comp40.mp3,60fcad7e0f438d71661601e3,21,Female,Right handed,2021-07-26_20h39.57.594,MA Experiment 2,2021.1.2,Win32,60.19744763,2,23,91,2,1,,,,,
1.0959,response_2,longValid,UNCLE,JANITOR,,,,,,MARBLE,CUSTOMER,short,resources/sound/trials/audio_stim_comp65.mp3,60fcad7e0f438d71661601e3,21,Female,Right handed,2021-07-26_20h39.57.594,MA Experiment 2,2021.1.2,Win32,60.19744763,2,24,92,4,1,,,,,
1.1127,response_2,longValid,CRYSTAL,ENAMEL,,,,,,RUBBER,PROPERTY,short,resources/sound/trials/audio_stim_human0.mp3,60fcad7e0f438d71661601e3,21,Female,Right handed,2021-07-26_20h39.57.594,MA Experiment 2,2021.1.2,Win32,60.19744763,2,25,93,12,1,,,,,
1.046,response_1,shortValid,DWELLER,PROFESSOR,,,,,,WORKER,VISITOR,short,resources/sound/trials/audio_stim_comp17.mp3,60fcad7e0f438d71661601e3,21,Female,Right handed,2021-07-26_20h39.57.594,MA Experiment 2,2021.1.2,Win32,60.19744763,2,26,94,6,1,,,,,
0.8791,response_1,,NEIGHBOUR,STRAWBERRY,,,,,,POISON,REVOLVER,long,resources/sound/catchTrials/audio_control_human_project01.mp3,60fcad7e0f438d71661601e3,21,Female,Right handed,2021-07-26_20h39.57.594,MA Experiment 2,2021.1.2,Win32,60.19744763,,,,,,0,27,27,25,1
0.7463,response_2,longFoil,WRITING,MEDICINE,,,,,,MINER,EMERALD,short,resources/sound/trials/audio_stim_human6.mp3,60fcad7e0f438d71661601e3,21,Female,Right handed,2021-07-26_20h39.57.594,MA Experiment 2,2021.1.2,Win32,60.19744763,2,27,95,13,1,,,,,
0.9303,response_1,longFoil,HAMMER,FISHERMAN,,,,,,BRAINSTORM,GREEN NEEDLE,short,resources/sound/trials/audio_stim_original.mp3,60fcad7e0f438d71661601e3,21,Female,Right handed,2021-07-26_20h39.57.594,MA Experiment 2,2021.1.2,Win32,60.19744763,2,28,96,16,1,,,,,
1.5635,response_1,shortFoil,INCOME,ENVELOPE,,,,,,BRAINSTORM,GREEN NEEDLE,long,resources/sound/trials/audio_stim_original.mp3,60fcad7e0f438d71661601e3,21,Female,Right handed,2021-07-26_20h39.57.594,MA Experiment 2,2021.1.2,Win32,60.19744763,2,29,97,33,1,,,,,
1.0291,response_2,longValid,SULPHUR,FACTORY,,,,,,MARBLE,CUSTOMER,long,resources/sound/trials/audio_stim_comp65.mp3,60fcad7e0f438d71661601e3,21,Female,Right handed,2021-07-26_20h39.57.594,MA Experiment 2,2021.1.2,Win32,60.19744763,2,30,98,21,1,,,,,
1.0123,response_1,,MEDICINE,PHYSICIAN,,,,,,JUGGLER,DANDELION,short,resources/sound/catchTrials/audio_control_human_project09.mp3,60fcad7e0f438d71661601e3,21,Female,Right handed,2021-07-26_20h39.57.594,MA Experiment 2,2021.1.2,Win32,60.19744763,,,,,,0,2,2,15,1
0.8956,response_1,longValid,KETTLE,INSTRUMENT,,,,,,CONCRETE,ENEMY,long,resources/sound/trials/audio_stim_human67.mp3,60fcad7e0f438d71661601e3,21,Female,Right handed,2021-07-26_20h39.57.594,MA Experiment 2,2021.1.2,Win32,60.19744763,2,31,99,27,1,,,,,
1.2967,response_1,shortFoil,TWEEZER,APPLIANCE,,,,,,SACRED,GALAXY,short,resources/sound/trials/audio_stim_comp1.mp3,60fcad7e0f438d71661601e3,21,Female,Right handed,2021-07-26_20h39.57.594,MA Experiment 2,2021.1.2,Win32,60.19744763,2,32,100,7,1,,,,,
1.5797,response_1,longValid,DIVING,MESSENGER,,,,,,DRIZZLE,CARDINAL,short,resources/sound/trials/audio_stim_comp69.mp3,60fcad7e0f438d71661601e3,21,Female,Right handed,2021-07-26_20h39.57.594,MA Experiment 2,2021.1.2,Win32,60.19744763,2,33,101,0,1,,,,,
1.1294,response_2,longFoil,PATIENT,AVENUE,,,,,,MARBLE,CUSTOMER,short,resources/sound/trials/audio_stim_comp65.mp3,60fcad7e0f438d71661601e3,21,Female,Right handed,2021-07-26_20h39.57.594,MA Experiment 2,2021.1.2,Win32,60.19744763,3,0,102,4,1,,,,,
0.7956,response_1,shortValid,CEREAL,GALLERY,,,,,,SACRED,GALAXY,short,resources/sound/trials/audio_stim_comp1.mp3,60fcad7e0f438d71661601e3,21,Female,Right handed,2021-07-26_20h39.57.594,MA Experiment 2,2021.1.2,Win32,60.19744763,3,1,103,7,1,,,,,
0.9956,response_2,shortValid,OFFICE,ORNAMENT,,,,,,RECEIPT,LIMOUSINE,short,resources/sound/trials/audio_stim_comp40.mp3,60fcad7e0f438d71661601e3,21,Female,Right handed,2021-07-26_20h39.57.594,MA Experiment 2,2021.1.2,Win32,60.19744763,3,2,104,2,1,,,,,
0.8127,response_1,,LEADER,COMMITTEE,,,,,,JUGGLER,DANDELION,long,resources/sound/catchTrials/audio_control_human_project09.mp3,60fcad7e0f438d71661601e3,21,Female,Right handed,2021-07-26_20h39.57.594,MA Experiment 2,2021.1.2,Win32,60.19744763,,,,,,0,29,29,31,1
1.2003,response_1,longFoil,CIGAR,PROPELLER,,,,,,WORKER,VISITOR,short,resources/sound/trials/audio_stim_comp17.mp3,60fcad7e0f438d71661601e3,21,Female,Right handed,2021-07-26_20h39.57.594,MA Experiment 2,2021.1.2,Win32,60.19744763,3,3,105,6,1,,,,,
0.7508,response_2,shortFoil,SOFA,MECHANIC,,,,,,PARTY,SANCTUARY,long,resources/sound/trials/audio_stim_human50.mp3,60fcad7e0f438d71661601e3,21,Female,Right handed,2021-07-26_20h39.57.594,MA Experiment 2,2021.1.2,Win32,60.19744763,3,4,106,31,1,,,,,
1.3955,response_2,longValid,ANCHOR,CIGARETTE,,,,,,RECEIPT,LIMOUSINE,long,resources/sound/trials/audio_stim_comp40.mp3,60fcad7e0f438d71661601e3,21,Female,Right handed,2021-07-26_20h39.57.594,MA Experiment 2,2021.1.2,Win32,60.19744763,3,5,107,19,1,,,,,
0.8329,response_1,shortFoil,RUSTY,FAMILY,,,,,,WHISTLE,TREASURER,long,resources/sound/trials/audio_stim_comp12.mp3,60fcad7e0f438d71661601e3,21,Female,Right handed,2021-07-26_20h39.57.594,MA Experiment 2,2021.1.2,Win32,60.19744763,3,6,108,20,1,,,,,
1.0964,response_2,,BERRY,FIREWOOD,,,,,,NAVY,RECTANGLE,long,resources/sound/catchTrials/audio_control_comp_project06.mp3,60fcad7e0f438d71661601e3,21,Female,Right handed,2021-07-26_20h39.57.594,MA Experiment 2,2021.1.2,Win32,60.19744763,,,,,,0,30,30,22,1
1.2628,response_1,longValid,LOBSTER,DESTROYER,,,,,,CONCRETE,ENEMY,short,resources/sound/trials/audio_stim_human67.mp3,60fcad7e0f438d71661601e3,21,Female,Right handed,2021-07-26_20h39.57.594,MA Experiment 2,2021.1.2,Win32,60.19744763,3,7,109,10,1,,,,,
1.6297,response_1,shortValid,MURDER,SETTLEMENT,,,,,,PAINTER,VEHICLE,short,resources/sound/trials/audio_stim_human47.mp3,60fcad7e0f438d71661601e3,21,Female,Right handed,2021-07-26_20h39.57.594,MA Experiment 2,2021.1.2,Win32,60.19744763,3,8,110,11,1,,,,,
1.2259,response_2,shortFoil,MISTRESS,POTATO,,,,,,DRIZZLE,CARDINAL,long,resources/sound/trials/audio_stim_comp69.mp3,60fcad7e0f438d71661601e3,21,Female,Right handed,2021-07-26_20h39.57.594,MA Experiment 2,2021.1.2,Win32,60.19744763,3,9,111,17,1,,,,,
0.8454,response_2,shortFoil,KENNEL,CITIZEN,,,,,,MINER,EMERALD,short,resources/sound/trials/audio_stim_comp6.mp3,60fcad7e0f438d71661601e3,21,Female,Right handed,2021-07-26_20h39.57.594,MA Experiment 2,2021.1.2,Win32,60.19744763,3,10,112,1,1,,,,,
1.3135,response_2,,TRAITOR,GOVERNMENT,,,,,,HOBBY,COLONY,short,resources/sound/catchTrials/audio_control_human_project04.mp3,60fcad7e0f438d71661601e3,21,Female,Right handed,2021-07-26_20h39.57.594,MA Experiment 2,2021.1.2,Win32,60.19744763,,,,,,0,3,3,11,1
1.0459,response_1,shortValid,EVENING,CATHEDRAL,,,,,,WHISTLE,TREASURER,short,resources/sound/trials/audio_stim_comp12.mp3,60fcad7e0f438d71661601e3,21,Female,Right handed,2021-07-26_20h39.57.594,MA Experiment 2,2021.1.2,Win32,60.19744763,3,11,113,3,1,,,,,
0.9302,response_2,shortFoil,BURNER,CABINET,,,,,,MINER,EMERALD,short,resources/sound/trials/audio_stim_human6.mp3,60fcad7e0f438d71661601e3,21,Female,Right handed,2021-07-26_20h39.57.594,MA Experiment 2,2021.1.2,Win32,60.19744763,3,12,114,13,1,,,,,
0.8297,response_1,longFoil,CURFEW,DIAMOND,,,,,,CONCRETE,ENEMY,long,resources/sound/trials/audio_stim_human67.mp3,60fcad7e0f438d71661601e3,21,Female,Right handed,2021-07-26_20h39.57.594,MA Experiment 2,2021.1.2,Win32,60.19744763,3,13,115,27,1,,,,,
0.5786,response_2,shortValid,OLIVE,INSTITUTE,,,,,,MINER,EMERALD,long,resources/sound/trials/audio_stim_human6.mp3,60fcad7e0f438d71661601e3,21,Female,Right handed,2021-07-26_20h39.57.594,MA Experiment 2,2021.1.2,Win32,60.19744763,3,14,116,30,1,,,,,
0.9141,response_2,,DOORWAY,ANTIQUE,,,,,,NAVY,RECTANGLE,long,resources/sound/catchTrials/audio_control_human_project06.mp3,60fcad7e0f438d71661601e3,21,Female,Right handed,2021-07-26_20h39.57.594,MA Experiment 2,2021.1.2,Win32,60.19744763,,,,,,0,23,23,30,1
1.38,response_2,longValid,FOREARM,CLARINET,,,,,,HARDWARE,OVERCOAT,long,resources/sound/trials/audio_stim_human35.mp3,60fcad7e0f438d71661601e3,21,Female,Right handed,2021-07-26_20h39.57.594,MA Experiment 2,2021.1.2,Win32,60.19744763,3,15,117,25,1,,,,,
0.6856,response_1,shortValid,FATHER,BUTTERFLY,,,,,,PARTY,SANCTUARY,short,resources/sound/trials/audio_stim_human50.mp3,60fcad7e0f438d71661601e3,21,Female,Right handed,2021-07-26_20h39.57.594,MA Experiment 2,2021.1.2,Win32,60.19744763,3,16,118,14,1,,,,,
0.9641,response_2,longValid,TORTURE,ATTENDANT,,,,,,BRAINSTORM,GREEN NEEDLE,short,resources/sound/trials/audio_stim_original.mp3,60fcad7e0f438d71661601e3,21,Female,Right handed,2021-07-26_20h39.57.594,MA Experiment 2,2021.1.2,Win32,60.19744763,3,17,119,16,1,,,,,
0.7994,response_2,shortValid,VILLAGE,VINEGAR,,,,,,RUBBER,PROPERTY,long,resources/sound/trials/audio_stim_human0.mp3,60fcad7e0f438d71661601e3,21,Female,Right handed,2021-07-26_20h39.57.594,MA Experiment 2,2021.1.2,Win32,60.19744763,3,18,120,29,1,,,,,
1.0297,response_1,,DIAL,MOLECULE,,,,,,POISON,REVOLVER,short,resources/sound/catchTrials/audio_control_human_project01.mp3,60fcad7e0f438d71661601e3,21,Female,Right handed,2021-07-26_20h39.57.594,MA Experiment 2,2021.1.2,Win32,60.19744763,,,,,,0,7,7,9,1
1.4168,response_1,longFoil,SEGMENT,POLICEMAN,,,,,,ATHLETE,IVORY,short,resources/sound/trials/audio_stim_comp57.mp3,60fcad7e0f438d71661601e3,21,Female,Right handed,2021-07-26_20h39.57.594,MA Experiment 2,2021.1.2,Win32,60.19744763,3,19,121,5,1,,,,,
0.9955,response_2,shortFoil,EARTHWORM,INSTRUCTOR,,,,,,SACRED,GALAXY,long,resources/sound/trials/audio_stim_comp1.mp3,60fcad7e0f438d71661601e3,21,Female,Right handed,2021-07-26_20h39.57.594,MA Experiment 2,2021.1.2,Win32,60.19744763,3,20,122,24,1,,,,,
1.7635,response_1,longFoil,NECKLACE,AMMONIA,,,,,,WORKER,VISITOR,long,resources/sound/trials/audio_stim_comp17.mp3,60fcad7e0f438d71661601e3,21,Female,Right handed,2021-07-26_20h39.57.594,MA Experiment 2,2021.1.2,Win32,60.19744763,3,21,123,23,1,,,,,
1.0789,response_1,longFoil,HARBOUR,AMBULANCE,,,,,,BRAINSTORM,GREEN NEEDLE,long,resources/sound/trials/audio_stim_original.mp3,60fcad7e0f438d71661601e3,21,Female,Right handed,2021-07-26_20h39.57.594,MA Experiment 2,2021.1.2,Win32,60.19744763,3,22,124,33,1,,,,,
1.2624,response_2,,GRADUATE,POLIO,,,,,,IRIS,VIOLIN,long,resources/sound/catchTrials/audio_control_human_project12.mp3,60fcad7e0f438d71661601e3,21,Female,Right handed,2021-07-26_20h39.57.594,MA Experiment 2,2021.1.2,Win32,60.19744763,,,,,,0,14,14,24,1
0.9632,response_1,shortFoil,WINDOW,MERCURY,,,,,,ATHLETE,IVORY,long,resources/sound/trials/audio_stim_comp57.mp3,60fcad7e0f438d71661601e3,21,Female,Right handed,2021-07-26_20h39.57.594,MA Experiment 2,2021.1.2,Win32,60.19744763,3,23,125,22,1,,,,,
1.13,response_2,longValid,CABIN,MONUMENT,,,,,,HARDWARE,OVERCOAT,short,resources/sound/trials/audio_stim_human35.mp3,60fcad7e0f438d71661601e3,21,Female,Right handed,2021-07-26_20h39.57.594,MA Experiment 2,2021.1.2,Win32,60.19744763,3,24,126,8,1,,,,,
1.3132,response_1,shortValid,NAPKIN,EMULSION,,,,,,MINER,EMERALD,long,resources/sound/trials/audio_stim_comp6.mp3,60fcad7e0f438d71661601e3,21,Female,Right handed,2021-07-26_20h39.57.594,MA Experiment 2,2021.1.2,Win32,60.19744763,3,25,127,18,1,,,,,
1.7465,response_2,longFoil,BISHOP,ATHLETICS,,,,,,DAYLIGHT,MATERIAL,long,resources/sound/trials/audio_stim_human42.mp3,60fcad7e0f438d71661601e3,21,Female,Right handed,2021-07-26_20h39.57.594,MA Experiment 2,2021.1.2,Win32,60.19744763,3,26,128,26,1,,,,,
1.6961,response_2,,TUMBLE,MOSQUITO,,,,,,BORDER,ALGEBRA,long,resources/sound/catchTrials/audio_control_comp_project00.mp3,60fcad7e0f438d71661601e3,21,Female,Right handed,2021-07-26_20h39.57.594,MA Experiment 2,2021.1.2,Win32,60.19744763,,,,,,0,1,1,16,1
1.2458,response_1,longFoil,NURSERY,ALPHABET,,,,,,DAYLIGHT,MATERIAL,short,resources/sound/trials/audio_stim_human42.mp3,60fcad7e0f438d71661601e3,21,Female,Right handed,2021-07-26_20h39.57.594,MA Experiment 2,2021.1.2,Win32,60.19744763,3,27,129,9,1,,,,,
0.8291,response_1,shortFoil,GIRDLE,ABDOMEN,,,,,,DRIZZLE,CARDINAL,short,resources/sound/trials/audio_stim_comp69.mp3,60fcad7e0f438d71661601e3,21,Female,Right handed,2021-07-26_20h39.57.594,MA Experiment 2,2021.1.2,Win32,60.19744763,3,28,130,0,1,,,,,
1.1802,response_2,shortFoil,KERNEL,HURRICANE,,,,,,ROBBER,RATTLESNAKE,short,resources/sound/trials/audio_stim_human64.mp3,60fcad7e0f438d71661601e3,21,Female,Right handed,2021-07-26_20h39.57.594,MA Experiment 2,2021.1.2,Win32,60.19744763,3,29,131,15,1,,,,,
0.796,response_1,shortValid,ACRE,PROJECTOR,,,,,,MARBLE,CUSTOMER,long,resources/sound/trials/audio_stim_comp65.mp3,60fcad7e0f438d71661601e3,21,Female,Right handed,2021-07-26_20h39.57.594,MA Experiment 2,2021.1.2,Win32,60.19744763,3,30,132,21,1,,,,,
0.88,response_2,,SHEEPSKIN,ASBESTOS,,,,,,NAVY,RECTANGLE,short,resources/sound/catchTrials/audio_control_human_project06.mp3,60fcad7e0f438d71661601e3,21,Female,Right handed,2021-07-26_20h39.57.594,MA Experiment 2,2021.1.2,Win32,60.19744763,,,,,,0,26,26,14,1
1.1014,response_1,shortFoil,BUTTER,LEMONADE,,,,,,PAINTER,VEHICLE,long,resources/sound/trials/audio_stim_human47.mp3,60fcad7e0f438d71661601e3,21,Female,Right handed,2021-07-26_20h39.57.594,MA Experiment 2,2021.1.2,Win32,60.19744763,3,31,133,28,1,,,,,
0.8799,response_2,longFoil,MEASLES,CARNATION,,,,,,ROBBER,RATTLESNAKE,long,resources/sound/trials/audio_stim_human64.mp3,60fcad7e0f438d71661601e3,21,Female,Right handed,2021-07-26_20h39.57.594,MA Experiment 2,2021.1.2,Win32,60.19744763,3,32,134,32,1,,,,,
1.2623,response_2,shortValid,LIQUID,TANGERINE,,,,,,RUBBER,PROPERTY,short,resources/sound/trials/audio_stim_human0.mp3,60fcad7e0f438d71661601e3,21,Female,Right handed,2021-07-26_20h39.57.594,MA Experiment 2,2021.1.2,Win32,60.19744763,3,33,135,12,1,,,,,
