response.time,response,cueTarget,rand_foil_1,rand_foil_2,prac_trials.thisRepN,prac_trials.thisTrialN,prac_trials.thisN,prac_trials.thisIndex,prac_trials.ran,word_1,word_2,cue,file_path,participant,age,gender,handedness,date,expName,psychopyVersion,OS,frameRate,trials.thisRepN,trials.thisTrialN,trials.thisN,trials.thisIndex,trials.ran,catchTrials.thisRepN,catchTrials.thisTrialN,catchTrials.thisN,catchTrials.thisIndex,catchTrials.ran
1.5944,response_2,shortFoil,MORNING,COMMITTEE,0,0,0,7,1,BUCKLE,WALLABY,long,resources/sound/prac_trials/practice_cue_human7.mp3,60fcad10ce60a71810f7f549,19,Female,Right handed,2021-07-26_20h52.12.228,MA Experiment 2,2021.1.2,Win32,59.9268892,,,,,,,,,,
1.3774,response_1,longValid,BERRY,TEMPERATURE,0,1,1,10,1,SAFFRON,JAVELIN,long,resources/sound/prac_trials/practice_cue10.mp3,60fcad10ce60a71810f7f549,19,Female,Right handed,2021-07-26_20h52.12.228,MA Experiment 2,2021.1.2,Win32,59.9268892,,,,,,,,,,
1.5113,response_1,longFoil,WINDOW,MOSQUITO,0,2,2,2,1,RECENT,TOBACCO,short,resources/sound/prac_trials/practice_cue2.mp3,60fcad10ce60a71810f7f549,19,Female,Right handed,2021-07-26_20h52.12.228,MA Experiment 2,2021.1.2,Win32,59.9268892,,,,,,,,,,
1.7938,response_2,shortFoil,FERTILE,CANDLELIGHT,0,3,3,8,1,DAGGER,EMPHASIS,long,resources/sound/prac_trials/practice_cue8.mp3,60fcad10ce60a71810f7f549,19,Female,Right handed,2021-07-26_20h52.12.228,MA Experiment 2,2021.1.2,Win32,59.9268892,,,,,,,,,,
1.2284,response_2,longFoil,LEADER,APPLIANCE,0,4,4,0,1,AARDVARK,FALLACY,short,resources/sound/prac_trials/practice_cue0.mp3,60fcad10ce60a71810f7f549,19,Female,Right handed,2021-07-26_20h52.12.228,MA Experiment 2,2021.1.2,Win32,59.9268892,,,,,,,,,,
,,longFoil,VESSEL,CONVENTION,0,5,5,1,1,CABLE,REPUBLIC,short,resources/sound/prac_trials/practice_cue_human1.mp3,60fcad10ce60a71810f7f549,19,Female,Right handed,2021-07-26_20h52.12.228,MA Experiment 2,2021.1.2,Win32,59.9268892,,,,,,,,,,
0.7116,response_2,shortFoil,WAFER,SETTLEMENT,0,6,6,3,1,EAGER,QUALIFY,short,resources/sound/prac_trials/practice_cue_human3.mp3,60fcad10ce60a71810f7f549,19,Female,Right handed,2021-07-26_20h52.12.228,MA Experiment 2,2021.1.2,Win32,59.9268892,,,,,,,,,,
0.9449,response_2,longValid,DIVING,CATHEDRAL,0,7,7,5,1,NONSENSE,OASIS,short,resources/sound/prac_trials/practice_cue_human5.mp3,60fcad10ce60a71810f7f549,19,Female,Right handed,2021-07-26_20h52.12.228,MA Experiment 2,2021.1.2,Win32,59.9268892,,,,,,,,,,
1.0775,response_2,longValid,JURY,INSTRUCTOR,0,8,8,6,1,VACANT,SALVATION,long,resources/sound/prac_trials/practice_cue6.mp3,60fcad10ce60a71810f7f549,19,Female,Right handed,2021-07-26_20h52.12.228,MA Experiment 2,2021.1.2,Win32,59.9268892,,,,,,,,,,
1.0774,response_2,shortFoil,CIGAR,RETAILER,0,9,9,4,1,FIZZY,ELECTRIC,short,resources/sound/prac_trials/practice_cue4.mp3,60fcad10ce60a71810f7f549,19,Female,Right handed,2021-07-26_20h52.12.228,MA Experiment 2,2021.1.2,Win32,59.9268892,,,,,,,,,,
1.0612,response_1,longValid,RABBI,MECHANIC,0,10,10,11,1,KETCHUP,GONDOLA,long,resources/sound/prac_trials/practice_cue_human11.mp3,60fcad10ce60a71810f7f549,19,Female,Right handed,2021-07-26_20h52.12.228,MA Experiment 2,2021.1.2,Win32,59.9268892,,,,,,,,,,
1.1447,response_2,longFoil,NEIGHBOUR,INDUSTRY,0,11,11,9,1,GRUMPY,LABYRINTH,long,resources/sound/prac_trials/practice_cue_human9.mp3,60fcad10ce60a71810f7f549,19,Female,Right handed,2021-07-26_20h52.12.228,MA Experiment 2,2021.1.2,Win32,59.9268892,,,,,,,,,,
0.9949,response_2,longValid,DIAL,GRASSHOPPER,,,,,,HARDWARE,OVERCOAT,long,resources/sound/trials/audio_stim_human35.mp3,60fcad10ce60a71810f7f549,19,Female,Right handed,2021-07-26_20h52.12.228,MA Experiment 2,2021.1.2,Win32,59.9268892,0,0,0,25,1,,,,,
1.612,response_2,longFoil,HAMMER,HEROIN,,,,,,PARTY,SANCTUARY,short,resources/sound/trials/audio_stim_human50.mp3,60fcad10ce60a71810f7f549,19,Female,Right handed,2021-07-26_20h52.12.228,MA Experiment 2,2021.1.2,Win32,59.9268892,0,1,1,14,1,,,,,
1.344,response_2,shortValid,STOCKING,POLIO,,,,,,CONCRETE,ENEMY,short,resources/sound/trials/audio_stim_human67.mp3,60fcad10ce60a71810f7f549,19,Female,Right handed,2021-07-26_20h52.12.228,MA Experiment 2,2021.1.2,Win32,59.9268892,0,2,2,10,1,,,,,
1.1086,response_1,,NURSERY,CLARINET,,,,,,VIOLET,LUBRICANT,short,resources/sound/catchTrials/audio_control_comp_project07.mp3,60fcad10ce60a71810f7f549,19,Female,Right handed,2021-07-26_20h52.12.228,MA Experiment 2,2021.1.2,Win32,59.9268892,,,,,,0,21,21,3,1
1.1778,response_4,shortFoil,MISTRESS,MONUMENT,,,,,,MINER,EMERALD,long,resources/sound/trials/audio_stim_comp6.mp3,60fcad10ce60a71810f7f549,19,Female,Right handed,2021-07-26_20h52.12.228,MA Experiment 2,2021.1.2,Win32,59.9268892,0,3,3,18,1,,,,,
1.729,response_2,shortFoil,SHEEPSKIN,GOVERNMENT,,,,,,ATHLETE,IVORY,long,resources/sound/trials/audio_stim_comp57.mp3,60fcad10ce60a71810f7f549,19,Female,Right handed,2021-07-26_20h52.12.228,MA Experiment 2,2021.1.2,Win32,59.9268892,0,4,4,22,1,,,,,
1.2928,response_1,shortValid,INVOICE,PROPELLER,,,,,,DRIZZLE,CARDINAL,long,resources/sound/trials/audio_stim_comp69.mp3,60fcad10ce60a71810f7f549,19,Female,Right handed,2021-07-26_20h52.12.228,MA Experiment 2,2021.1.2,Win32,59.9268892,0,5,5,17,1,,,,,
1.0094,response_1,longValid,STATION,MICROSCOPE,,,,,,DAYLIGHT,MATERIAL,short,resources/sound/trials/audio_stim_human42.mp3,60fcad10ce60a71810f7f549,19,Female,Right handed,2021-07-26_20h52.12.228,MA Experiment 2,2021.1.2,Win32,59.9268892,0,6,6,9,1,,,,,
1.3735,response_2,,MEASLES,ADMIRAL,,,,,,CORNER,ENGINEER,short,resources/sound/catchTrials/audio_control_human_project14.mp3,60fcad10ce60a71810f7f549,19,Female,Right handed,2021-07-26_20h52.12.228,MA Experiment 2,2021.1.2,Win32,59.9268892,,,,,,0,13,13,10,1
2.261,response_2,longFoil,SULPHUR,SAXOPHONE,,,,,,SACRED,GALAXY,short,resources/sound/trials/audio_stim_comp1.mp3,60fcad10ce60a71810f7f549,19,Female,Right handed,2021-07-26_20h52.12.228,MA Experiment 2,2021.1.2,Win32,59.9268892,0,7,7,7,1,,,,,
0.8436,response_1,longValid,MEDICINE,UMBRELLA,,,,,,DRIZZLE,CARDINAL,short,resources/sound/trials/audio_stim_comp69.mp3,60fcad10ce60a71810f7f549,19,Female,Right handed,2021-07-26_20h52.12.228,MA Experiment 2,2021.1.2,Win32,59.9268892,0,8,8,0,1,,,,,
0.9466,response_2,shortValid,KETTLE,HONEYMOON,,,,,,DAYLIGHT,MATERIAL,long,resources/sound/trials/audio_stim_human42.mp3,60fcad10ce60a71810f7f549,19,Female,Right handed,2021-07-26_20h52.12.228,MA Experiment 2,2021.1.2,Win32,59.9268892,0,9,9,26,1,,,,,
0.8256,response_2,longValid,BURNER,ALPHABET,,,,,,ROBBER,RATTLESNAKE,short,resources/sound/trials/audio_stim_human64.mp3,60fcad10ce60a71810f7f549,19,Female,Right handed,2021-07-26_20h52.12.228,MA Experiment 2,2021.1.2,Win32,59.9268892,0,10,10,15,1,,,,,
1.0949,response_1,,VILLAGE,GYMNASTICS,,,,,,VIOLET,LUBRICANT,short,resources/sound/catchTrials/audio_control_human_project07.mp3,60fcad10ce60a71810f7f549,19,Female,Right handed,2021-07-26_20h52.12.228,MA Experiment 2,2021.1.2,Win32,59.9268892,,,,,,0,24,24,12,1
1.6413,response_1,longFoil,DUEL,HURRICANE,,,,,,PAINTER,VEHICLE,short,resources/sound/trials/audio_stim_human47.mp3,60fcad10ce60a71810f7f549,19,Female,Right handed,2021-07-26_20h52.12.228,MA Experiment 2,2021.1.2,Win32,59.9268892,0,11,11,11,1,,,,,
1.427,response_2,longFoil,CRYSTAL,AVENUE,,,,,,RUBBER,PROPERTY,short,resources/sound/trials/audio_stim_human0.mp3,60fcad10ce60a71810f7f549,19,Female,Right handed,2021-07-26_20h52.12.228,MA Experiment 2,2021.1.2,Win32,59.9268892,0,12,12,12,1,,,,,
1.6781,response_2,longValid,PICTURE,NEWSPAPER,,,,,,SACRED,GALAXY,long,resources/sound/trials/audio_stim_comp1.mp3,60fcad10ce60a71810f7f549,19,Female,Right handed,2021-07-26_20h52.12.228,MA Experiment 2,2021.1.2,Win32,59.9268892,0,13,13,24,1,,,,,
1.3781,response_2,shortValid,MOONLIGHT,ALCOHOL,,,,,,RUBBER,PROPERTY,long,resources/sound/trials/audio_stim_human0.mp3,60fcad10ce60a71810f7f549,19,Female,Right handed,2021-07-26_20h52.12.228,MA Experiment 2,2021.1.2,Win32,59.9268892,0,14,14,29,1,,,,,
1.3945,response_1,,FOREARM,CABINET,,,,,,POISON,REVOLVER,long,resources/sound/catchTrials/audio_control_human_project01.mp3,60fcad10ce60a71810f7f549,19,Female,Right handed,2021-07-26_20h52.12.228,MA Experiment 2,2021.1.2,Win32,59.9268892,,,,,,0,25,25,25,1
1.2284,response_1,longValid,PIPING,CROCODILE,,,,,,WORKER,VISITOR,short,resources/sound/trials/audio_stim_comp17.mp3,60fcad10ce60a71810f7f549,19,Female,Right handed,2021-07-26_20h52.12.228,MA Experiment 2,2021.1.2,Win32,59.9268892,0,15,15,6,1,,,,,
1.2948,response_1,longValid,INCOME,MINERAL,,,,,,PARTY,SANCTUARY,long,resources/sound/trials/audio_stim_human50.mp3,60fcad10ce60a71810f7f549,19,Female,Right handed,2021-07-26_20h52.12.228,MA Experiment 2,2021.1.2,Win32,59.9268892,0,16,16,31,1,,,,,
1.7626,response_1,longFoil,HARBOUR,PHYSICIAN,,,,,,ATHLETE,IVORY,short,resources/sound/trials/audio_stim_comp57.mp3,60fcad10ce60a71810f7f549,19,Female,Right handed,2021-07-26_20h52.12.228,MA Experiment 2,2021.1.2,Win32,59.9268892,0,17,17,5,1,,,,,
0.9107,response_2,longFoil,LIQUID,DIAMOND,,,,,,ROBBER,RATTLESNAKE,long,resources/sound/trials/audio_stim_human64.mp3,60fcad10ce60a71810f7f549,19,Female,Right handed,2021-07-26_20h52.12.228,MA Experiment 2,2021.1.2,Win32,59.9268892,0,18,18,32,1,,,,,
1.0114,response_2,,WRITING,CARNATION,,,,,,NAVY,RECTANGLE,short,resources/sound/catchTrials/audio_control_human_project06.mp3,60fcad10ce60a71810f7f549,19,Female,Right handed,2021-07-26_20h52.12.228,MA Experiment 2,2021.1.2,Win32,59.9268892,,,,,,0,31,31,14,1
1.5452,response_1,longFoil,MURDER,FACTORY,,,,,,RECEIPT,LIMOUSINE,long,resources/sound/trials/audio_stim_comp40.mp3,60fcad10ce60a71810f7f549,19,Female,Right handed,2021-07-26_20h52.12.228,MA Experiment 2,2021.1.2,Win32,59.9268892,0,19,19,19,1,,,,,
1.3946,response_1,longFoil,TRAITOR,HEADQUARTERS,,,,,,WHISTLE,TREASURER,short,resources/sound/trials/audio_stim_comp12.mp3,60fcad10ce60a71810f7f549,19,Female,Right handed,2021-07-26_20h52.12.228,MA Experiment 2,2021.1.2,Win32,59.9268892,0,20,20,3,1,,,,,
1.361,response_2,longValid,ACRE,CORRIDOR,,,,,,BRAINSTORM,GREEN NEEDLE,short,resources/sound/trials/audio_stim_original.mp3,60fcad10ce60a71810f7f549,19,Female,Right handed,2021-07-26_20h52.12.228,MA Experiment 2,2021.1.2,Win32,59.9268892,0,21,21,16,1,,,,,
1.0944,response_2,shortValid,SOFA,REFEREE,,,,,,HARDWARE,OVERCOAT,short,resources/sound/trials/audio_stim_human35.mp3,60fcad10ce60a71810f7f549,19,Female,Right handed,2021-07-26_20h52.12.228,MA Experiment 2,2021.1.2,Win32,59.9268892,0,22,22,8,1,,,,,
1.0777,response_2,,PODIUM,POLICEMAN,,,,,,ICY,JITTERBUG,long,resources/sound/catchTrials/audio_control_comp_project08.mp3,60fcad10ce60a71810f7f549,19,Female,Right handed,2021-07-26_20h52.12.228,MA Experiment 2,2021.1.2,Win32,59.9268892,,,,,,0,9,9,23,1
0.9121,response_2,shortFoil,LIGHTNING,FIREWOOD,,,,,,BRAINSTORM,GREEN NEEDLE,long,resources/sound/trials/audio_stim_original.mp3,60fcad10ce60a71810f7f549,19,Female,Right handed,2021-07-26_20h52.12.228,MA Experiment 2,2021.1.2,Win32,59.9268892,0,23,23,33,1,,,,,
1.5453,response_1,shortValid,HURDLE,OPENING,,,,,,PAINTER,VEHICLE,long,resources/sound/trials/audio_stim_human47.mp3,60fcad10ce60a71810f7f549,19,Female,Right handed,2021-07-26_20h52.12.228,MA Experiment 2,2021.1.2,Win32,59.9268892,0,24,24,28,1,,,,,
1.6612,response_2,shortFoil,BISHOP,AMBULANCE,,,,,,MINER,EMERALD,short,resources/sound/trials/audio_stim_comp6.mp3,60fcad10ce60a71810f7f549,19,Female,Right handed,2021-07-26_20h52.12.228,MA Experiment 2,2021.1.2,Win32,59.9268892,0,25,25,1,1,,,,,
0.9943,response_2,shortFoil,PERSON,PROFESSOR,,,,,,CONCRETE,ENEMY,long,resources/sound/trials/audio_stim_human67.mp3,60fcad10ce60a71810f7f549,19,Female,Right handed,2021-07-26_20h52.12.228,MA Experiment 2,2021.1.2,Win32,59.9268892,0,26,26,27,1,,,,,
1.0782,response_2,,DANCER,INFECTION,,,,,,NAVY,RECTANGLE,long,resources/sound/catchTrials/audio_control_comp_project06.mp3,60fcad10ce60a71810f7f549,19,Female,Right handed,2021-07-26_20h52.12.228,MA Experiment 2,2021.1.2,Win32,59.9268892,,,,,,0,1,1,22,1
0.9947,response_1,shortFoil,NAPKIN,GALLERY,,,,,,WHISTLE,TREASURER,long,resources/sound/trials/audio_stim_comp12.mp3,60fcad10ce60a71810f7f549,19,Female,Right handed,2021-07-26_20h52.12.228,MA Experiment 2,2021.1.2,Win32,59.9268892,0,27,27,20,1,,,,,
2.2283,response_2,longFoil,UNCLE,FISHERMAN,,,,,,MARBLE,CUSTOMER,short,resources/sound/trials/audio_stim_comp65.mp3,60fcad10ce60a71810f7f549,19,Female,Right handed,2021-07-26_20h52.12.228,MA Experiment 2,2021.1.2,Win32,59.9268892,0,28,28,4,1,,,,,
0.8952,response_2,shortFoil,TEMPLE,MOLECULE,,,,,,WORKER,VISITOR,long,resources/sound/trials/audio_stim_comp17.mp3,60fcad10ce60a71810f7f549,19,Female,Right handed,2021-07-26_20h52.12.228,MA Experiment 2,2021.1.2,Win32,59.9268892,0,29,29,23,1,,,,,
0.9943,response_2,shortValid,TWEEZER,TANGERINE,,,,,,MINER,EMERALD,short,resources/sound/trials/audio_stim_human6.mp3,60fcad10ce60a71810f7f549,19,Female,Right handed,2021-07-26_20h52.12.228,MA Experiment 2,2021.1.2,Win32,59.9268892,0,30,30,13,1,,,,,
1.21,response_1,,ANCHOR,POTATO,,,,,,JUGGLER,DANDELION,long,resources/sound/catchTrials/audio_control_human_project09.mp3,60fcad10ce60a71810f7f549,19,Female,Right handed,2021-07-26_20h52.12.228,MA Experiment 2,2021.1.2,Win32,59.9268892,,,,,,0,6,6,31,1
1.7129,response_2,longValid,MURAL,MESSENGER,,,,,,MINER,EMERALD,long,resources/sound/trials/audio_stim_human6.mp3,60fcad10ce60a71810f7f549,19,Female,Right handed,2021-07-26_20h52.12.228,MA Experiment 2,2021.1.2,Win32,59.9268892,0,31,31,30,1,,,,,
1.2165,response_2,longFoil,CAPTAIN,ACROBAT,,,,,,MARBLE,CUSTOMER,long,resources/sound/trials/audio_stim_comp65.mp3,60fcad10ce60a71810f7f549,19,Female,Right handed,2021-07-26_20h52.12.228,MA Experiment 2,2021.1.2,Win32,59.9268892,0,32,32,21,1,,,,,
1.1615,response_1,longValid,SEGMENT,ANTIQUE,,,,,,RECEIPT,LIMOUSINE,short,resources/sound/trials/audio_stim_comp40.mp3,60fcad10ce60a71810f7f549,19,Female,Right handed,2021-07-26_20h52.12.228,MA Experiment 2,2021.1.2,Win32,59.9268892,0,33,33,2,1,,,,,
0.7779,response_2,shortFoil,DOORWAY,ENVELOPE,,,,,,ROBBER,RATTLESNAKE,short,resources/sound/trials/audio_stim_human64.mp3,60fcad10ce60a71810f7f549,19,Female,Right handed,2021-07-26_20h52.12.228,MA Experiment 2,2021.1.2,Win32,59.9268892,1,0,34,15,1,,,,,
1.0788,response_2,shortFoil,WALRUS,FAMILY,,,,,,ROBBER,RATTLESNAKE,long,resources/sound/trials/audio_stim_human64.mp3,60fcad10ce60a71810f7f549,19,Female,Right handed,2021-07-26_20h52.12.228,MA Experiment 2,2021.1.2,Win32,59.9268892,1,1,35,32,1,,,,,
0.9619,response_2,longFoil,GRADUATE,INJURY,,,,,,BRAINSTORM,GREEN NEEDLE,long,resources/sound/trials/audio_stim_original.mp3,60fcad10ce60a71810f7f549,19,Female,Right handed,2021-07-26_20h52.12.228,MA Experiment 2,2021.1.2,Win32,59.9268892,1,2,36,33,1,,,,,
1.0625,response_2,,DECOY,ENAMEL,,,,,,JOURNAL,ROBBERY,short,resources/sound/catchTrials/audio_control_human_project02.mp3,60fcad10ce60a71810f7f549,19,Female,Right handed,2021-07-26_20h52.12.228,MA Experiment 2,2021.1.2,Win32,59.9268892,,,,,,0,4,4,13,1
1.1481,response_1,shortValid,GIRDLE,JANITOR,,,,,,RECEIPT,LIMOUSINE,short,resources/sound/trials/audio_stim_comp40.mp3,60fcad10ce60a71810f7f549,19,Female,Right handed,2021-07-26_20h52.12.228,MA Experiment 2,2021.1.2,Win32,59.9268892,1,3,37,2,1,,,,,
1.1627,response_1,shortValid,FAIRY,MINISTER,,,,,,DAYLIGHT,MATERIAL,short,resources/sound/trials/audio_stim_human42.mp3,60fcad10ce60a71810f7f549,19,Female,Right handed,2021-07-26_20h52.12.228,MA Experiment 2,2021.1.2,Win32,59.9268892,1,4,38,9,1,,,,,
1.2057,response_1,shortFoil,OFFICE,SPECIALIST,,,,,,DRIZZLE,CARDINAL,long,resources/sound/trials/audio_stim_comp69.mp3,60fcad10ce60a71810f7f549,19,Female,Right handed,2021-07-26_20h52.12.228,MA Experiment 2,2021.1.2,Win32,59.9268892,1,5,39,17,1,,,,,
1.5655,response_1,shortFoil,NATIVE,HOSPITAL,,,,,,PAINTER,VEHICLE,short,resources/sound/trials/audio_stim_human47.mp3,60fcad10ce60a71810f7f549,19,Female,Right handed,2021-07-26_20h52.12.228,MA Experiment 2,2021.1.2,Win32,59.9268892,1,6,40,11,1,,,,,
1,response_2,,CANTEEN,GINGERBREAD,,,,,,IRIS,VIOLIN,short,resources/sound/catchTrials/audio_control_comp_project12.mp3,60fcad10ce60a71810f7f549,19,Female,Right handed,2021-07-26_20h52.12.228,MA Experiment 2,2021.1.2,Win32,59.9268892,,,,,,0,15,15,4,1
0.9832,response_2,shortFoil,NOVEL,INSTITUTE,,,,,,RUBBER,PROPERTY,short,resources/sound/trials/audio_stim_human0.mp3,60fcad10ce60a71810f7f549,19,Female,Right handed,2021-07-26_20h52.12.228,MA Experiment 2,2021.1.2,Win32,59.9268892,1,7,41,12,1,,,,,
0.9312,response_2,shortValid,SHOULDER,AMMONIA,,,,,,CONCRETE,ENEMY,long,resources/sound/trials/audio_stim_human67.mp3,60fcad10ce60a71810f7f549,19,Female,Right handed,2021-07-26_20h52.12.228,MA Experiment 2,2021.1.2,Win32,59.9268892,1,8,42,27,1,,,,,
1.8626,response_2,longFoil,CHIPMUNK,CAPITAL,,,,,,ATHLETE,IVORY,long,resources/sound/trials/audio_stim_comp57.mp3,60fcad10ce60a71810f7f549,19,Female,Right handed,2021-07-26_20h52.12.228,MA Experiment 2,2021.1.2,Win32,59.9268892,1,9,43,22,1,,,,,
1.4171,response_1,longValid,DWELLER,GORILLA,,,,,,RUBBER,PROPERTY,long,resources/sound/trials/audio_stim_human0.mp3,60fcad10ce60a71810f7f549,19,Female,Right handed,2021-07-26_20h52.12.228,MA Experiment 2,2021.1.2,Win32,59.9268892,1,10,44,29,1,,,,,
1.0652,response_2,,CABIN,CAMERA,,,,,,JOURNAL,ROBBERY,long,resources/sound/catchTrials/audio_control_human_project02.mp3,60fcad10ce60a71810f7f549,19,Female,Right handed,2021-07-26_20h52.12.228,MA Experiment 2,2021.1.2,Win32,59.9268892,,,,,,0,30,30,29,1
1.36,response_1,longFoil,SODA,ORNAMENT,,,,,,DRIZZLE,CARDINAL,short,resources/sound/trials/audio_stim_comp69.mp3,60fcad10ce60a71810f7f549,19,Female,Right handed,2021-07-26_20h52.12.228,MA Experiment 2,2021.1.2,Win32,59.9268892,1,11,45,0,1,,,,,
0.9172,response_2,shortFoil,NECKLACE,FURNITURE,,,,,,CONCRETE,ENEMY,short,resources/sound/trials/audio_stim_human67.mp3,60fcad10ce60a71810f7f549,19,Female,Right handed,2021-07-26_20h52.12.228,MA Experiment 2,2021.1.2,Win32,59.9268892,1,12,46,10,1,,,,,
1.234,response_2,longFoil,SCOOTER,VINEGAR,,,,,,MINER,EMERALD,short,resources/sound/trials/audio_stim_comp6.mp3,60fcad10ce60a71810f7f549,19,Female,Right handed,2021-07-26_20h52.12.228,MA Experiment 2,2021.1.2,Win32,59.9268892,1,13,47,1,1,,,,,
1.2831,response_2,longValid,VALLEY,LECTURER,,,,,,HARDWARE,OVERCOAT,short,resources/sound/trials/audio_stim_human35.mp3,60fcad10ce60a71810f7f549,19,Female,Right handed,2021-07-26_20h52.12.228,MA Experiment 2,2021.1.2,Win32,59.9268892,1,14,48,8,1,,,,,
1.2161,response_2,,HAMSTER,MERCURY,,,,,,HOBBY,COLONY,short,resources/sound/catchTrials/audio_control_comp_project04.mp3,60fcad10ce60a71810f7f549,19,Female,Right handed,2021-07-26_20h52.12.228,MA Experiment 2,2021.1.2,Win32,59.9268892,,,,,,0,8,8,2,1
2.0794,response_2,longFoil,OLIVE,EMULSION,,,,,,MINER,EMERALD,long,resources/sound/trials/audio_stim_comp6.mp3,60fcad10ce60a71810f7f549,19,Female,Right handed,2021-07-26_20h52.12.228,MA Experiment 2,2021.1.2,Win32,59.9268892,1,15,49,18,1,,,,,
1.0983,response_1,longValid,TORTURE,ATHLETICS,,,,,,MARBLE,CUSTOMER,long,resources/sound/trials/audio_stim_comp65.mp3,60fcad10ce60a71810f7f549,19,Female,Right handed,2021-07-26_20h52.12.228,MA Experiment 2,2021.1.2,Win32,59.9268892,1,16,50,21,1,,,,,
1.0137,response_2,shortValid,VAPOUR,INSTRUMENT,,,,,,SACRED,GALAXY,short,resources/sound/trials/audio_stim_comp1.mp3,60fcad10ce60a71810f7f549,19,Female,Right handed,2021-07-26_20h52.12.228,MA Experiment 2,2021.1.2,Win32,59.9268892,1,17,51,7,1,,,,,
1.034,response_2,shortValid,EVENING,CIGARETTE,,,,,,WORKER,VISITOR,long,resources/sound/trials/audio_stim_comp17.mp3,60fcad10ce60a71810f7f549,19,Female,Right handed,2021-07-26_20h52.12.228,MA Experiment 2,2021.1.2,Win32,59.9268892,1,18,52,23,1,,,,,
1.733,response_2,,BUTTER,ABDOMEN,,,,,,SPINACH,APRICOT,short,resources/sound/catchTrials/audio_control_comp_project18.mp3,60fcad10ce60a71810f7f549,19,Female,Right handed,2021-07-26_20h52.12.228,MA Experiment 2,2021.1.2,Win32,59.9268892,,,,,,0,12,12,5,1
1.5341,response_2,shortFoil,CEREAL,MEDICINE,,,,,,HARDWARE,OVERCOAT,long,resources/sound/trials/audio_stim_human35.mp3,60fcad10ce60a71810f7f549,19,Female,Right handed,2021-07-26_20h52.12.228,MA Experiment 2,2021.1.2,Win32,59.9268892,1,19,53,25,1,,,,,
1.1948,response_1,shortValid,PIANO,LEMONADE,,,,,,WORKER,VISITOR,short,resources/sound/trials/audio_stim_comp17.mp3,60fcad10ce60a71810f7f549,19,Female,Right handed,2021-07-26_20h52.12.228,MA Experiment 2,2021.1.2,Win32,59.9268892,1,20,54,6,1,,,,,
1.2007,response_1,longFoil,PATIENT,HANDKERCHIEF,,,,,,MINER,EMERALD,short,resources/sound/trials/audio_stim_human6.mp3,60fcad10ce60a71810f7f549,19,Female,Right handed,2021-07-26_20h52.12.228,MA Experiment 2,2021.1.2,Win32,59.9268892,1,21,55,13,1,,,,,
1.2666,response_1,shortValid,FEVER,ICICLE,,,,,,BRAINSTORM,GREEN NEEDLE,short,resources/sound/trials/audio_stim_original.mp3,60fcad10ce60a71810f7f549,19,Female,Right handed,2021-07-26_20h52.12.228,MA Experiment 2,2021.1.2,Win32,59.9268892,1,22,56,16,1,,,,,
0.8963,response_2,,BEETLE,PHOTOGRAPH,,,,,,IRIS,VIOLIN,long,resources/sound/catchTrials/audio_control_human_project12.mp3,60fcad10ce60a71810f7f549,19,Female,Right handed,2021-07-26_20h52.12.228,MA Experiment 2,2021.1.2,Win32,59.9268892,,,,,,0,2,2,24,1
1.3128,response_1,longValid,KERNEL,STRAWBERRY,,,,,,ATHLETE,IVORY,short,resources/sound/trials/audio_stim_comp57.mp3,60fcad10ce60a71810f7f549,19,Female,Right handed,2021-07-26_20h52.12.228,MA Experiment 2,2021.1.2,Win32,59.9268892,1,23,57,5,1,,,,,
1.2001,response_2,longValid,SINGER,CITIZEN,,,,,,RECEIPT,LIMOUSINE,long,resources/sound/trials/audio_stim_comp40.mp3,60fcad10ce60a71810f7f549,19,Female,Right handed,2021-07-26_20h52.12.228,MA Experiment 2,2021.1.2,Win32,59.9268892,1,24,58,19,1,,,,,
1.4837,response_1,shortFoil,POLO,ASBESTOS,,,,,,PAINTER,VEHICLE,long,resources/sound/trials/audio_stim_human47.mp3,60fcad10ce60a71810f7f549,19,Female,Right handed,2021-07-26_20h52.12.228,MA Experiment 2,2021.1.2,Win32,59.9268892,1,25,59,28,1,,,,,
1.0995,response_2,shortValid,FATHER,BUTTERFLY,,,,,,PARTY,SANCTUARY,short,resources/sound/trials/audio_stim_human50.mp3,60fcad10ce60a71810f7f549,19,Female,Right handed,2021-07-26_20h52.12.228,MA Experiment 2,2021.1.2,Win32,59.9268892,1,26,60,14,1,,,,,
1.267,response_2,,KENNEL,NEIGHBOURHOOD,,,,,,SPINACH,APRICOT,long,resources/sound/catchTrials/audio_control_comp_project18.mp3,60fcad10ce60a71810f7f549,19,Female,Right handed,2021-07-26_20h52.12.228,MA Experiment 2,2021.1.2,Win32,59.9268892,,,,,,0,0,0,21,1
1.2501,response_1,shortFoil,LOBSTER,DESTROYER,,,,,,DAYLIGHT,MATERIAL,long,resources/sound/trials/audio_stim_human42.mp3,60fcad10ce60a71810f7f549,19,Female,Right handed,2021-07-26_20h52.12.228,MA Experiment 2,2021.1.2,Win32,59.9268892,1,27,61,26,1,,,,,
0.9837,response_2,shortFoil,CURFEW,DISSECTION,,,,,,SACRED,GALAXY,long,resources/sound/trials/audio_stim_comp1.mp3,60fcad10ce60a71810f7f549,19,Female,Right handed,2021-07-26_20h52.12.228,MA Experiment 2,2021.1.2,Win32,59.9268892,1,28,62,24,1,,,,,
0.8813,response_2,shortFoil,PRINCESS,CHOCOLATE,,,,,,MARBLE,CUSTOMER,short,resources/sound/trials/audio_stim_comp65.mp3,60fcad10ce60a71810f7f549,19,Female,Right handed,2021-07-26_20h52.12.228,MA Experiment 2,2021.1.2,Win32,59.9268892,1,29,63,4,1,,,,,
1.0096,response_1,shortValid,EARTHWORM,ATTENDANT,,,,,,WHISTLE,TREASURER,long,resources/sound/trials/audio_stim_comp12.mp3,60fcad10ce60a71810f7f549,19,Female,Right handed,2021-07-26_20h52.12.228,MA Experiment 2,2021.1.2,Win32,59.9268892,1,30,64,20,1,,,,,
1.2338,response_2,,SADDLE,INTERVIEW,,,,,,ICY,JITTERBUG,short,resources/sound/catchTrials/audio_control_comp_project08.mp3,60fcad10ce60a71810f7f549,19,Female,Right handed,2021-07-26_20h52.12.228,MA Experiment 2,2021.1.2,Win32,59.9268892,,,,,,0,22,22,7,1
1.0282,response_2,shortValid,RUSTY,OXYGEN,,,,,,PARTY,SANCTUARY,long,resources/sound/trials/audio_stim_human50.mp3,60fcad10ce60a71810f7f549,19,Female,Right handed,2021-07-26_20h52.12.228,MA Experiment 2,2021.1.2,Win32,59.9268892,1,31,65,31,1,,,,,
1.3452,response_1,shortFoil,TUMBLE,BEVERAGE,,,,,,WHISTLE,TREASURER,short,resources/sound/trials/audio_stim_comp12.mp3,60fcad10ce60a71810f7f549,19,Female,Right handed,2021-07-26_20h52.12.228,MA Experiment 2,2021.1.2,Win32,59.9268892,1,32,66,3,1,,,,,
0.9657,response_2,longFoil,WIRE,CINNAMON,,,,,,MINER,EMERALD,long,resources/sound/trials/audio_stim_human6.mp3,60fcad10ce60a71810f7f549,19,Female,Right handed,2021-07-26_20h52.12.228,MA Experiment 2,2021.1.2,Win32,59.9268892,1,33,67,30,1,,,,,
1.5164,response_2,longFoil,MUSCLE,PROJECTOR,,,,,,RUBBER,PROPERTY,long,resources/sound/trials/audio_stim_human0.mp3,60fcad10ce60a71810f7f549,19,Female,Right handed,2021-07-26_20h52.12.228,MA Experiment 2,2021.1.2,Win32,59.9268892,2,0,68,29,1,,,,,
1.1121,response_1,shortFoil,BEETLE,CANDLELIGHT,,,,,,RECEIPT,LIMOUSINE,short,resources/sound/trials/audio_stim_comp40.mp3,60fcad10ce60a71810f7f549,19,Female,Right handed,2021-07-26_20h52.12.228,MA Experiment 2,2021.1.2,Win32,59.9268892,2,1,69,2,1,,,,,
0.9302,response_1,longValid,FATHER,HONEYMOON,,,,,,DRIZZLE,CARDINAL,long,resources/sound/trials/audio_stim_comp69.mp3,60fcad10ce60a71810f7f549,19,Female,Right handed,2021-07-26_20h52.12.228,MA Experiment 2,2021.1.2,Win32,59.9268892,2,2,70,17,1,,,,,
1.0115,response_2,,BUTTER,CITIZEN,,,,,,NAVY,RECTANGLE,long,resources/sound/catchTrials/audio_control_human_project06.mp3,60fcad10ce60a71810f7f549,19,Female,Right handed,2021-07-26_20h52.12.228,MA Experiment 2,2021.1.2,Win32,59.9268892,,,,,,0,14,14,30,1
0.7637,response_2,shortFoil,CAPTAIN,GOVERNMENT,,,,,,SACRED,GALAXY,short,resources/sound/trials/audio_stim_comp1.mp3,60fcad10ce60a71810f7f549,19,Female,Right handed,2021-07-26_20h52.12.228,MA Experiment 2,2021.1.2,Win32,59.9268892,2,3,71,7,1,,,,,
0.8452,response_2,shortFoil,EARTHWORM,ATHLETICS,,,,,,PARTY,SANCTUARY,short,resources/sound/trials/audio_stim_human50.mp3,60fcad10ce60a71810f7f549,19,Female,Right handed,2021-07-26_20h52.12.228,MA Experiment 2,2021.1.2,Win32,59.9268892,2,4,72,14,1,,,,,
1.1332,response_2,shortFoil,SINGER,ALPHABET,,,,,,MARBLE,CUSTOMER,long,resources/sound/trials/audio_stim_comp65.mp3,60fcad10ce60a71810f7f549,19,Female,Right handed,2021-07-26_20h52.12.228,MA Experiment 2,2021.1.2,Win32,59.9268892,2,5,73,21,1,,,,,
1.1001,response_2,shortValid,WAFER,CINNAMON,,,,,,RUBBER,PROPERTY,short,resources/sound/trials/audio_stim_human0.mp3,60fcad10ce60a71810f7f549,19,Female,Right handed,2021-07-26_20h52.12.228,MA Experiment 2,2021.1.2,Win32,59.9268892,2,6,74,12,1,,,,,
1.1668,response_1,,WIRE,CATHEDRAL,,,,,,JUGGLER,DANDELION,short,resources/sound/catchTrials/audio_control_human_project09.mp3,60fcad10ce60a71810f7f549,19,Female,Right handed,2021-07-26_20h52.12.228,MA Experiment 2,2021.1.2,Win32,59.9268892,,,,,,0,20,20,15,1
1.0478,response_2,shortValid,LEADER,PHYSICIAN,,,,,,MINER,EMERALD,short,resources/sound/trials/audio_stim_comp6.mp3,60fcad10ce60a71810f7f549,19,Female,Right handed,2021-07-26_20h52.12.228,MA Experiment 2,2021.1.2,Win32,59.9268892,2,7,75,1,1,,,,,
1.595,response_1,longValid,VILLAGE,HURRICANE,,,,,,ROBBER,RATTLESNAKE,long,resources/sound/trials/audio_stim_human64.mp3,60fcad10ce60a71810f7f549,19,Female,Right handed,2021-07-26_20h52.12.228,MA Experiment 2,2021.1.2,Win32,59.9268892,2,8,76,32,1,,,,,
1.0305,response_2,shortValid,FEVER,RETAILER,,,,,,MARBLE,CUSTOMER,short,resources/sound/trials/audio_stim_comp65.mp3,60fcad10ce60a71810f7f549,19,Female,Right handed,2021-07-26_20h52.12.228,MA Experiment 2,2021.1.2,Win32,59.9268892,2,9,77,4,1,,,,,
0.7797,response_2,shortValid,FERTILE,PROFESSOR,,,,,,ROBBER,RATTLESNAKE,short,resources/sound/trials/audio_stim_human64.mp3,60fcad10ce60a71810f7f549,19,Female,Right handed,2021-07-26_20h52.12.228,MA Experiment 2,2021.1.2,Win32,59.9268892,2,10,78,15,1,,,,,
1.2504,response_2,,ANCHOR,INDUSTRY,,,,,,IRIS,VIOLIN,long,resources/sound/catchTrials/audio_control_comp_project12.mp3,60fcad10ce60a71810f7f549,19,Female,Right handed,2021-07-26_20h52.12.228,MA Experiment 2,2021.1.2,Win32,59.9268892,,,,,,0,16,16,20,1
1.0799,response_2,longValid,SADDLE,AMBULANCE,,,,,,CONCRETE,ENEMY,short,resources/sound/trials/audio_stim_human67.mp3,60fcad10ce60a71810f7f549,19,Female,Right handed,2021-07-26_20h52.12.228,MA Experiment 2,2021.1.2,Win32,59.9268892,2,11,79,10,1,,,,,
1.2641,response_1,shortValid,DIAL,REFEREE,,,,,,ATHLETE,IVORY,long,resources/sound/trials/audio_stim_comp57.mp3,60fcad10ce60a71810f7f549,19,Female,Right handed,2021-07-26_20h52.12.228,MA Experiment 2,2021.1.2,Win32,59.9268892,2,12,80,22,1,,,,,
1.628,response_2,longValid,LIQUID,STRAWBERRY,,,,,,MINER,EMERALD,short,resources/sound/trials/audio_stim_human6.mp3,60fcad10ce60a71810f7f549,19,Female,Right handed,2021-07-26_20h52.12.228,MA Experiment 2,2021.1.2,Win32,59.9268892,2,13,81,13,1,,,,,
0.9662,response_2,longValid,HARBOUR,TEMPERATURE,,,,,,MINER,EMERALD,long,resources/sound/trials/audio_stim_comp6.mp3,60fcad10ce60a71810f7f549,19,Female,Right handed,2021-07-26_20h52.12.228,MA Experiment 2,2021.1.2,Win32,59.9268892,2,14,82,18,1,,,,,
1.0796,response_2,,PICTURE,HEROIN,,,,,,HOBBY,COLONY,short,resources/sound/catchTrials/audio_control_human_project04.mp3,60fcad10ce60a71810f7f549,19,Female,Right handed,2021-07-26_20h52.12.228,MA Experiment 2,2021.1.2,Win32,59.9268892,,,,,,0,29,29,11,1
1.1003,response_2,shortFoil,TORTURE,PROPELLER,,,,,,HARDWARE,OVERCOAT,short,resources/sound/trials/audio_stim_human35.mp3,60fcad10ce60a71810f7f549,19,Female,Right handed,2021-07-26_20h52.12.228,MA Experiment 2,2021.1.2,Win32,59.9268892,2,15,83,8,1,,,,,
1.5474,response_2,longFoil,SHEEPSKIN,ICICLE,,,,,,PARTY,SANCTUARY,long,resources/sound/trials/audio_stim_human50.mp3,60fcad10ce60a71810f7f549,19,Female,Right handed,2021-07-26_20h52.12.228,MA Experiment 2,2021.1.2,Win32,59.9268892,2,16,84,31,1,,,,,
1.2494,response_1,longFoil,BERRY,ENAMEL,,,,,,DAYLIGHT,MATERIAL,short,resources/sound/trials/audio_stim_human42.mp3,60fcad10ce60a71810f7f549,19,Female,Right handed,2021-07-26_20h52.12.228,MA Experiment 2,2021.1.2,Win32,59.9268892,2,17,85,9,1,,,,,
1.3459,response_1,shortValid,MEASLES,LEMONADE,,,,,,WHISTLE,TREASURER,short,resources/sound/trials/audio_stim_comp12.mp3,60fcad10ce60a71810f7f549,19,Female,Right handed,2021-07-26_20h52.12.228,MA Experiment 2,2021.1.2,Win32,59.9268892,2,18,86,3,1,,,,,
1.0788,response_2,,NATIVE,MICROSCOPE,,,,,,IRIS,VIOLIN,short,resources/sound/catchTrials/audio_control_human_project12.mp3,60fcad10ce60a71810f7f549,19,Female,Right handed,2021-07-26_20h52.12.228,MA Experiment 2,2021.1.2,Win32,59.9268892,,,,,,0,23,23,8,1
1.26,response_2,longFoil,PODIUM,INSTRUMENT,,,,,,WORKER,VISITOR,long,resources/sound/trials/audio_stim_comp17.mp3,60fcad10ce60a71810f7f549,19,Female,Right handed,2021-07-26_20h52.12.228,MA Experiment 2,2021.1.2,Win32,59.9268892,2,19,87,23,1,,,,,
1.4975,response_1,longValid,MURDER,AVENUE,,,,,,PAINTER,VEHICLE,long,resources/sound/trials/audio_stim_human47.mp3,60fcad10ce60a71810f7f549,19,Female,Right handed,2021-07-26_20h52.12.228,MA Experiment 2,2021.1.2,Win32,59.9268892,2,20,88,28,1,,,,,
1.5266,response_1,shortValid,MURAL,HEADQUARTERS,,,,,,RECEIPT,LIMOUSINE,long,resources/sound/trials/audio_stim_comp40.mp3,60fcad10ce60a71810f7f549,19,Female,Right handed,2021-07-26_20h52.12.228,MA Experiment 2,2021.1.2,Win32,59.9268892,2,21,89,19,1,,,,,
1.1315,response_1,shortValid,TWEEZER,ASBESTOS,,,,,,DRIZZLE,CARDINAL,short,resources/sound/trials/audio_stim_comp69.mp3,60fcad10ce60a71810f7f549,19,Female,Right handed,2021-07-26_20h52.12.228,MA Experiment 2,2021.1.2,Win32,59.9268892,2,22,90,0,1,,,,,
1.3958,response_2,,NAPKIN,DISSECTION,,,,,,HOBBY,COLONY,long,resources/sound/catchTrials/audio_control_human_project04.mp3,60fcad10ce60a71810f7f549,19,Female,Right handed,2021-07-26_20h52.12.228,MA Experiment 2,2021.1.2,Win32,59.9268892,,,,,,0,18,18,27,1
1.4339,response_2,longFoil,CRYSTAL,LECTURER,,,,,,WHISTLE,TREASURER,long,resources/sound/trials/audio_stim_comp12.mp3,60fcad10ce60a71810f7f549,19,Female,Right handed,2021-07-26_20h52.12.228,MA Experiment 2,2021.1.2,Win32,59.9268892,2,23,91,20,1,,,,,
0.9619,response_1,longFoil,LIGHTNING,ABDOMEN,,,,,,WORKER,VISITOR,short,resources/sound/trials/audio_stim_comp17.mp3,60fcad10ce60a71810f7f549,19,Female,Right handed,2021-07-26_20h52.12.228,MA Experiment 2,2021.1.2,Win32,59.9268892,2,24,92,6,1,,,,,
1.278,response_2,longValid,VESSEL,GYMNASTICS,,,,,,DAYLIGHT,MATERIAL,long,resources/sound/trials/audio_stim_human42.mp3,60fcad10ce60a71810f7f549,19,Female,Right handed,2021-07-26_20h52.12.228,MA Experiment 2,2021.1.2,Win32,59.9268892,2,25,93,26,1,,,,,
1.9669,response_2,longValid,WINDOW,CIGARETTE,,,,,,PAINTER,VEHICLE,short,resources/sound/trials/audio_stim_human47.mp3,60fcad10ce60a71810f7f549,19,Female,Right handed,2021-07-26_20h52.12.228,MA Experiment 2,2021.1.2,Win32,59.9268892,2,26,94,11,1,,,,,
1.2587,response_2,,GRADUATE,GALLERY,,,,,,CORNER,ENGINEER,long,resources/sound/catchTrials/audio_control_human_project14.mp3,60fcad10ce60a71810f7f549,19,Female,Right handed,2021-07-26_20h52.12.228,MA Experiment 2,2021.1.2,Win32,59.9268892,,,,,,0,5,5,26,1
1.2008,response_2,shortFoil,NOVEL,COMMITTEE,,,,,,BRAINSTORM,GREEN NEEDLE,short,resources/sound/trials/audio_stim_original.mp3,60fcad10ce60a71810f7f549,19,Female,Right handed,2021-07-26_20h52.12.228,MA Experiment 2,2021.1.2,Win32,59.9268892,2,27,95,16,1,,,,,
1.2176,response_2,shortFoil,FOREARM,UMBRELLA,,,,,,MINER,EMERALD,long,resources/sound/trials/audio_stim_human6.mp3,60fcad10ce60a71810f7f549,19,Female,Right handed,2021-07-26_20h52.12.228,MA Experiment 2,2021.1.2,Win32,59.9268892,2,28,96,30,1,,,,,
1.3135,response_1,longFoil,CHIPMUNK,INSTITUTE,,,,,,CONCRETE,ENEMY,long,resources/sound/trials/audio_stim_human67.mp3,60fcad10ce60a71810f7f549,19,Female,Right handed,2021-07-26_20h52.12.228,MA Experiment 2,2021.1.2,Win32,59.9268892,2,29,97,27,1,,,,,
1.1963,response_1,shortValid,CURFEW,INJURY,,,,,,BRAINSTORM,GREEN NEEDLE,long,resources/sound/trials/audio_stim_original.mp3,60fcad10ce60a71810f7f549,19,Female,Right handed,2021-07-26_20h52.12.228,MA Experiment 2,2021.1.2,Win32,59.9268892,2,30,98,33,1,,,,,
1.083,response_1,,BISHOP,CLARINET,,,,,,POISON,REVOLVER,short,resources/sound/catchTrials/audio_control_human_project01.mp3,60fcad10ce60a71810f7f549,19,Female,Right handed,2021-07-26_20h52.12.228,MA Experiment 2,2021.1.2,Win32,59.9268892,,,,,,0,26,26,9,1
1.4293,response_2,longFoil,PERSON,ENVELOPE,,,,,,HARDWARE,OVERCOAT,long,resources/sound/trials/audio_stim_human35.mp3,60fcad10ce60a71810f7f549,19,Female,Right handed,2021-07-26_20h52.12.228,MA Experiment 2,2021.1.2,Win32,59.9268892,2,31,99,25,1,,,,,
1.7935,response_2,longFoil,HAMMER,MOLECULE,,,,,,SACRED,GALAXY,long,resources/sound/trials/audio_stim_comp1.mp3,60fcad10ce60a71810f7f549,19,Female,Right handed,2021-07-26_20h52.12.228,MA Experiment 2,2021.1.2,Win32,59.9268892,2,32,100,24,1,,,,,
1.0136,response_1,shortFoil,MISTRESS,SAXOPHONE,,,,,,ATHLETE,IVORY,short,resources/sound/trials/audio_stim_comp57.mp3,60fcad10ce60a71810f7f549,19,Female,Right handed,2021-07-26_20h52.12.228,MA Experiment 2,2021.1.2,Win32,59.9268892,2,33,101,5,1,,,,,
1.1645,response_2,longValid,WALRUS,BEVERAGE,,,,,,WORKER,VISITOR,long,resources/sound/trials/audio_stim_comp17.mp3,60fcad10ce60a71810f7f549,19,Female,Right handed,2021-07-26_20h52.12.228,MA Experiment 2,2021.1.2,Win32,59.9268892,3,0,102,23,1,,,,,
1.2672,response_2,longValid,EVENING,MECHANIC,,,,,,MARBLE,CUSTOMER,short,resources/sound/trials/audio_stim_comp65.mp3,60fcad10ce60a71810f7f549,19,Female,Right handed,2021-07-26_20h52.12.228,MA Experiment 2,2021.1.2,Win32,59.9268892,3,1,103,4,1,,,,,
1.5502,response_1,longFoil,OFFICE,HOSPITAL,,,,,,RECEIPT,LIMOUSINE,short,resources/sound/trials/audio_stim_comp40.mp3,60fcad10ce60a71810f7f549,19,Female,Right handed,2021-07-26_20h52.12.228,MA Experiment 2,2021.1.2,Win32,59.9268892,3,2,104,2,1,,,,,
1.0426,response_2,,INCOME,MINERAL,,,,,,NAVY,RECTANGLE,short,resources/sound/catchTrials/audio_control_comp_project06.mp3,60fcad10ce60a71810f7f549,19,Female,Right handed,2021-07-26_20h52.12.228,MA Experiment 2,2021.1.2,Win32,59.9268892,,,,,,0,27,27,6,1
1.0948,response_4,longFoil,VAPOUR,CAMERA,,,,,,PAINTER,VEHICLE,long,resources/sound/trials/audio_stim_human47.mp3,60fcad10ce60a71810f7f549,19,Female,Right handed,2021-07-26_20h52.12.228,MA Experiment 2,2021.1.2,Win32,59.9268892,3,3,105,28,1,,,,,
0.9009,response_2,shortValid,PRINCESS,PROJECTOR,,,,,,MARBLE,CUSTOMER,long,resources/sound/trials/audio_stim_comp65.mp3,60fcad10ce60a71810f7f549,19,Female,Right handed,2021-07-26_20h52.12.228,MA Experiment 2,2021.1.2,Win32,59.9268892,3,4,106,21,1,,,,,
1.4269,response_2,longValid,OLIVE,MEDICINE,,,,,,BRAINSTORM,GREEN NEEDLE,long,resources/sound/trials/audio_stim_original.mp3,60fcad10ce60a71810f7f549,19,Female,Right handed,2021-07-26_20h52.12.228,MA Experiment 2,2021.1.2,Win32,59.9268892,3,5,107,33,1,,,,,
1.7795,response_2,shortFoil,BURNER,NEIGHBOURHOOD,,,,,,MINER,EMERALD,short,resources/sound/trials/audio_stim_human6.mp3,60fcad10ce60a71810f7f549,19,Female,Right handed,2021-07-26_20h52.12.228,MA Experiment 2,2021.1.2,Win32,59.9268892,3,6,108,13,1,,,,,
1.7675,response_2,,MORNING,CABINET,,,,,,BORDER,ALGEBRA,long,resources/sound/catchTrials/audio_control_comp_project00.mp3,60fcad10ce60a71810f7f549,19,Female,Right handed,2021-07-26_20h52.12.228,MA Experiment 2,2021.1.2,Win32,59.9268892,,,,,,0,3,3,16,1
1.3816,response_2,longFoil,NECKLACE,INSTRUCTOR,,,,,,HARDWARE,OVERCOAT,short,resources/sound/trials/audio_stim_human35.mp3,60fcad10ce60a71810f7f549,19,Female,Right handed,2021-07-26_20h52.12.228,MA Experiment 2,2021.1.2,Win32,59.9268892,3,7,109,8,1,,,,,
1.4173,response_1,longValid,FAIRY,CARNATION,,,,,,SACRED,GALAXY,short,resources/sound/trials/audio_stim_comp1.mp3,60fcad10ce60a71810f7f549,19,Female,Right handed,2021-07-26_20h52.12.228,MA Experiment 2,2021.1.2,Win32,59.9268892,3,8,110,7,1,,,,,
1.0402,response_2,shortValid,DIVING,POLICEMAN,,,,,,MINER,EMERALD,long,resources/sound/trials/audio_stim_comp6.mp3,60fcad10ce60a71810f7f549,19,Female,Right handed,2021-07-26_20h52.12.228,MA Experiment 2,2021.1.2,Win32,59.9268892,3,9,111,18,1,,,,,
1.1847,response_1,longValid,CEREAL,CONVENTION,,,,,,MINER,EMERALD,short,resources/sound/trials/audio_stim_comp6.mp3,60fcad10ce60a71810f7f549,19,Female,Right handed,2021-07-26_20h52.12.228,MA Experiment 2,2021.1.2,Win32,59.9268892,3,10,112,1,1,,,,,
1.247,response_2,,MUSCLE,GORILLA,,,,,,CORNER,ENGINEER,long,resources/sound/catchTrials/audio_control_comp_project14.mp3,60fcad10ce60a71810f7f549,19,Female,Right handed,2021-07-26_20h52.12.228,MA Experiment 2,2021.1.2,Win32,59.9268892,,,,,,0,28,28,17,1
1.3832,response_2,longFoil,CABIN,TANGERINE,,,,,,BRAINSTORM,GREEN NEEDLE,short,resources/sound/trials/audio_stim_original.mp3,60fcad10ce60a71810f7f549,19,Female,Right handed,2021-07-26_20h52.12.228,MA Experiment 2,2021.1.2,Win32,59.9268892,3,11,113,16,1,,,,,
1.3143,response_1,longFoil,SCOOTER,BUTTERFLY,,,,,,CONCRETE,ENEMY,short,resources/sound/trials/audio_stim_human67.mp3,60fcad10ce60a71810f7f549,19,Female,Right handed,2021-07-26_20h52.12.228,MA Experiment 2,2021.1.2,Win32,59.9268892,3,12,114,10,1,,,,,
1.3466,response_1,shortValid,KETTLE,ORNAMENT,,,,,,SACRED,GALAXY,long,resources/sound/trials/audio_stim_comp1.mp3,60fcad10ce60a71810f7f549,19,Female,Right handed,2021-07-26_20h52.12.228,MA Experiment 2,2021.1.2,Win32,59.9268892,3,13,115,24,1,,,,,
1.3473,response_2,shortValid,SEGMENT,SETTLEMENT,,,,,,MINER,EMERALD,long,resources/sound/trials/audio_stim_human6.mp3,60fcad10ce60a71810f7f549,19,Female,Right handed,2021-07-26_20h52.12.228,MA Experiment 2,2021.1.2,Win32,59.9268892,3,14,116,30,1,,,,,
1.3833,response_2,,PIANO,OXYGEN,,,,,,BORDER,ALGEBRA,short,resources/sound/catchTrials/audio_control_comp_project00.mp3,60fcad10ce60a71810f7f549,19,Female,Right handed,2021-07-26_20h52.12.228,MA Experiment 2,2021.1.2,Win32,59.9268892,,,,,,0,19,19,0,1
1.1259,response_1,longFoil,DUEL,APPLIANCE,,,,,,DAYLIGHT,MATERIAL,long,resources/sound/trials/audio_stim_human42.mp3,60fcad10ce60a71810f7f549,19,Female,Right handed,2021-07-26_20h52.12.228,MA Experiment 2,2021.1.2,Win32,59.9268892,3,15,117,26,1,,,,,
1.3455,response_1,longValid,DECOY,CORRIDOR,,,,,,CONCRETE,ENEMY,long,resources/sound/trials/audio_stim_human67.mp3,60fcad10ce60a71810f7f549,19,Female,Right handed,2021-07-26_20h52.12.228,MA Experiment 2,2021.1.2,Win32,59.9268892,3,16,118,27,1,,,,,
1.2967,response_2,shortValid,KENNEL,ADMIRAL,,,,,,HARDWARE,OVERCOAT,long,resources/sound/trials/audio_stim_human35.mp3,60fcad10ce60a71810f7f549,19,Female,Right handed,2021-07-26_20h52.12.228,MA Experiment 2,2021.1.2,Win32,59.9268892,3,17,119,25,1,,,,,
1.1176,response_2,longValid,NURSERY,PHOTOGRAPH,,,,,,PARTY,SANCTUARY,short,resources/sound/trials/audio_stim_human50.mp3,60fcad10ce60a71810f7f549,19,Female,Right handed,2021-07-26_20h52.12.228,MA Experiment 2,2021.1.2,Win32,59.9268892,3,18,120,14,1,,,,,
1.4668,response_2,,NEIGHBOUR,DESTROYER,,,,,,HOBBY,COLONY,long,resources/sound/catchTrials/audio_control_comp_project04.mp3,60fcad10ce60a71810f7f549,19,Female,Right handed,2021-07-26_20h52.12.228,MA Experiment 2,2021.1.2,Win32,59.9268892,,,,,,0,17,17,18,1
1.3455,response_2,shortFoil,TEMPLE,ALCOHOL,,,,,,RECEIPT,LIMOUSINE,long,resources/sound/trials/audio_stim_comp40.mp3,60fcad10ce60a71810f7f549,19,Female,Right handed,2021-07-26_20h52.12.228,MA Experiment 2,2021.1.2,Win32,59.9268892,3,19,121,19,1,,,,,
1.2671,response_2,longValid,DANCER,EMULSION,,,,,,RUBBER,PROPERTY,short,resources/sound/trials/audio_stim_human0.mp3,60fcad10ce60a71810f7f549,19,Female,Right handed,2021-07-26_20h52.12.228,MA Experiment 2,2021.1.2,Win32,59.9268892,3,20,122,12,1,,,,,
1.4498,response_1,shortValid,DOORWAY,MERCURY,,,,,,ROBBER,RATTLESNAKE,long,resources/sound/trials/audio_stim_human64.mp3,60fcad10ce60a71810f7f549,19,Female,Right handed,2021-07-26_20h52.12.228,MA Experiment 2,2021.1.2,Win32,59.9268892,3,21,123,32,1,,,,,
1.0832,response_1,longFoil,HAMSTER,ACROBAT,,,,,,DRIZZLE,CARDINAL,long,resources/sound/trials/audio_stim_comp69.mp3,60fcad10ce60a71810f7f549,19,Female,Right handed,2021-07-26_20h52.12.228,MA Experiment 2,2021.1.2,Win32,59.9268892,3,22,124,17,1,,,,,
1.5839,response_1,,PIPING,MOSQUITO,,,,,,VIOLET,LUBRICANT,long,resources/sound/catchTrials/audio_control_comp_project07.mp3,60fcad10ce60a71810f7f549,19,Female,Right handed,2021-07-26_20h52.12.228,MA Experiment 2,2021.1.2,Win32,59.9268892,,,,,,0,10,10,19,1
1.4503,response_1,shortValid,UNCLE,FISHERMAN,,,,,,ATHLETE,IVORY,short,resources/sound/trials/audio_stim_comp57.mp3,60fcad10ce60a71810f7f549,19,Female,Right handed,2021-07-26_20h52.12.228,MA Experiment 2,2021.1.2,Win32,59.9268892,3,23,125,5,1,,,,,
1.6965,response_1,shortFoil,CANTEEN,MINISTER,,,,,,DRIZZLE,CARDINAL,short,resources/sound/trials/audio_stim_comp69.mp3,60fcad10ce60a71810f7f549,19,Female,Right handed,2021-07-26_20h52.12.228,MA Experiment 2,2021.1.2,Win32,59.9268892,3,24,126,0,1,,,,,
1.1952,response_1,longValid,MOONLIGHT,ATTENDANT,,,,,,WHISTLE,TREASURER,long,resources/sound/trials/audio_stim_comp12.mp3,60fcad10ce60a71810f7f549,19,Female,Right handed,2021-07-26_20h52.12.228,MA Experiment 2,2021.1.2,Win32,59.9268892,3,25,127,20,1,,,,,
1.544,response_2,longFoil,SULPHUR,ANTIQUE,,,,,,ROBBER,RATTLESNAKE,short,resources/sound/trials/audio_stim_human64.mp3,60fcad10ce60a71810f7f549,19,Female,Right handed,2021-07-26_20h52.12.228,MA Experiment 2,2021.1.2,Win32,59.9268892,3,26,128,15,1,,,,,
1.6311,response_2,,DWELLER,INFECTION,,,,,,CORNER,ENGINEER,short,resources/sound/catchTrials/audio_control_comp_project14.mp3,60fcad10ce60a71810f7f549,19,Female,Right handed,2021-07-26_20h52.12.228,MA Experiment 2,2021.1.2,Win32,59.9268892,,,,,,0,11,11,1,1
1.0933,response_2,shortFoil,POLO,POLIO,,,,,,PARTY,SANCTUARY,long,resources/sound/trials/audio_stim_human50.mp3,60fcad10ce60a71810f7f549,19,Female,Right handed,2021-07-26_20h52.12.228,MA Experiment 2,2021.1.2,Win32,59.9268892,3,27,129,31,1,,,,,
1.063,response_2,shortValid,CIGAR,OPENING,,,,,,PAINTER,VEHICLE,short,resources/sound/trials/audio_stim_human47.mp3,60fcad10ce60a71810f7f549,19,Female,Right handed,2021-07-26_20h52.12.228,MA Experiment 2,2021.1.2,Win32,59.9268892,3,28,130,11,1,,,,,
1.1478,response_2,shortFoil,SOFA,VINEGAR,,,,,,RUBBER,PROPERTY,long,resources/sound/trials/audio_stim_human0.mp3,60fcad10ce60a71810f7f549,19,Female,Right handed,2021-07-26_20h52.12.228,MA Experiment 2,2021.1.2,Win32,59.9268892,3,29,131,29,1,,,,,
1.3333,response_2,longValid,HURDLE,MONUMENT,,,,,,ATHLETE,IVORY,long,resources/sound/trials/audio_stim_comp57.mp3,60fcad10ce60a71810f7f549,19,Female,Right handed,2021-07-26_20h52.12.228,MA Experiment 2,2021.1.2,Win32,59.9268892,3,30,132,22,1,,,,,
1.0603,response_1,,TRAITOR,INTERVIEW,,,,,,VIOLET,LUBRICANT,long,resources/sound/catchTrials/audio_control_human_project07.mp3,60fcad10ce60a71810f7f549,19,Female,Right handed,2021-07-26_20h52.12.228,MA Experiment 2,2021.1.2,Win32,59.9268892,,,,,,0,7,7,28,1
0.9797,response_1,longValid,JURY,SPECIALIST,,,,,,WHISTLE,TREASURER,short,resources/sound/trials/audio_stim_comp12.mp3,60fcad10ce60a71810f7f549,19,Female,Right handed,2021-07-26_20h52.12.228,MA Experiment 2,2021.1.2,Win32,59.9268892,3,31,133,3,1,,,,,
1.4837,response_1,shortFoil,PATIENT,HANDKERCHIEF,,,,,,DAYLIGHT,MATERIAL,short,resources/sound/trials/audio_stim_human42.mp3,60fcad10ce60a71810f7f549,19,Female,Right handed,2021-07-26_20h52.12.228,MA Experiment 2,2021.1.2,Win32,59.9268892,3,32,134,9,1,,,,,
1.4674,response_2,shortFoil,KERNEL,FURNITURE,,,,,,WORKER,VISITOR,short,resources/sound/trials/audio_stim_comp17.mp3,60fcad10ce60a71810f7f549,19,Female,Right handed,2021-07-26_20h52.12.228,MA Experiment 2,2021.1.2,Win32,59.9268892,3,33,135,6,1,,,,,
