response.time,response,cueTarget,rand_foil_1,rand_foil_2,prac_trials.thisRepN,prac_trials.thisTrialN,prac_trials.thisN,prac_trials.thisIndex,prac_trials.ran,word_1,word_2,cue,file_path,participant,age,gender,handedness,date,expName,psychopyVersion,OS,frameRate,trials.thisRepN,trials.thisTrialN,trials.thisN,trials.thisIndex,trials.ran,catchTrials.thisRepN,catchTrials.thisTrialN,catchTrials.thisN,catchTrials.thisIndex,catchTrials.ran
1.859,response_2,longFoil,EARTHWORM,INFECTION,0,0,0,0,1,AARDVARK,FALLACY,short,resources/sound/prac_trials/practice_cue0.mp3,60fc2220e5b6f3a077f0d742,18,Female,Right handed,2021-07-26_20h58.50.760,MA Experiment 2,2021.1.2,MacIntel,58.82352941,,,,,,,,,,
2.627,response_2,longValid,MISTRESS,AMBULANCE,0,1,1,5,1,NONSENSE,OASIS,short,resources/sound/prac_trials/practice_cue_human5.mp3,60fc2220e5b6f3a077f0d742,18,Female,Right handed,2021-07-26_20h58.50.760,MA Experiment 2,2021.1.2,MacIntel,58.82352941,,,,,,,,,,
1.092,response_2,longFoil,KERNEL,UMBRELLA,0,2,2,2,1,RECENT,TOBACCO,short,resources/sound/prac_trials/practice_cue2.mp3,60fc2220e5b6f3a077f0d742,18,Female,Right handed,2021-07-26_20h58.50.760,MA Experiment 2,2021.1.2,MacIntel,58.82352941,,,,,,,,,,
1.344,response_2,shortFoil,NATIVE,MOSQUITO,0,3,3,8,1,DAGGER,EMPHASIS,long,resources/sound/prac_trials/practice_cue8.mp3,60fc2220e5b6f3a077f0d742,18,Female,Right handed,2021-07-26_20h58.50.760,MA Experiment 2,2021.1.2,MacIntel,58.82352941,,,,,,,,,,
2.342,response_1,longFoil,DIVING,ALPHABET,0,4,4,1,1,CABLE,REPUBLIC,short,resources/sound/prac_trials/practice_cue_human1.mp3,60fc2220e5b6f3a077f0d742,18,Female,Right handed,2021-07-26_20h58.50.760,MA Experiment 2,2021.1.2,MacIntel,58.82352941,,,,,,,,,,
1.11,response_2,shortValid,BUTTER,ENVELOPE,0,5,5,7,1,BUCKLE,WALLABY,long,resources/sound/prac_trials/practice_cue_human7.mp3,60fc2220e5b6f3a077f0d742,18,Female,Right handed,2021-07-26_20h58.50.760,MA Experiment 2,2021.1.2,MacIntel,58.82352941,,,,,,,,,,
1.326,response_2,shortValid,GIRDLE,ATTENDANT,0,6,6,4,1,FIZZY,ELECTRIC,short,resources/sound/prac_trials/practice_cue4.mp3,60fc2220e5b6f3a077f0d742,18,Female,Right handed,2021-07-26_20h58.50.760,MA Experiment 2,2021.1.2,MacIntel,58.82352941,,,,,,,,,,
1.925,response_2,longValid,CHIPMUNK,INSTRUCTOR,0,7,7,9,1,GRUMPY,LABYRINTH,long,resources/sound/prac_trials/practice_cue_human9.mp3,60fc2220e5b6f3a077f0d742,18,Female,Right handed,2021-07-26_20h58.50.760,MA Experiment 2,2021.1.2,MacIntel,58.82352941,,,,,,,,,,
2.024,response_1,longValid,WAFER,STRAWBERRY,0,8,8,10,1,SAFFRON,JAVELIN,long,resources/sound/prac_trials/practice_cue10.mp3,60fc2220e5b6f3a077f0d742,18,Female,Right handed,2021-07-26_20h58.50.760,MA Experiment 2,2021.1.2,MacIntel,58.82352941,,,,,,,,,,
1.692,response_4,longValid,CABIN,HEROIN,0,9,9,6,1,VACANT,SALVATION,long,resources/sound/prac_trials/practice_cue6.mp3,60fc2220e5b6f3a077f0d742,18,Female,Right handed,2021-07-26_20h58.50.760,MA Experiment 2,2021.1.2,MacIntel,58.82352941,,,,,,,,,,
2.06,response_4,shortValid,NOVEL,CAMERA,0,10,10,11,1,KETCHUP,GONDOLA,long,resources/sound/prac_trials/practice_cue_human11.mp3,60fc2220e5b6f3a077f0d742,18,Female,Right handed,2021-07-26_20h58.50.760,MA Experiment 2,2021.1.2,MacIntel,58.82352941,,,,,,,,,,
0.908,response_2,longValid,VILLAGE,MINERAL,0,11,11,3,1,EAGER,QUALIFY,short,resources/sound/prac_trials/practice_cue_human3.mp3,60fc2220e5b6f3a077f0d742,18,Female,Right handed,2021-07-26_20h58.50.760,MA Experiment 2,2021.1.2,MacIntel,58.82352941,,,,,,,,,,
1.209,response_2,longFoil,VAPOUR,FURNITURE,,,,,,MINER,EMERALD,short,resources/sound/trials/audio_stim_comp6.mp3,60fc2220e5b6f3a077f0d742,18,Female,Right handed,2021-07-26_20h58.50.760,MA Experiment 2,2021.1.2,MacIntel,58.82352941,0,0,0,1,1,,,,,
1.375,response_1,shortFoil,WIRE,CLARINET,,,,,,SACRED,GALAXY,short,resources/sound/trials/audio_stim_comp1.mp3,60fc2220e5b6f3a077f0d742,18,Female,Right handed,2021-07-26_20h58.50.760,MA Experiment 2,2021.1.2,MacIntel,58.82352941,0,1,1,7,1,,,,,
1.41,response_2,shortFoil,SEGMENT,CROCODILE,,,,,,RUBBER,PROPERTY,short,resources/sound/trials/audio_stim_human0.mp3,60fc2220e5b6f3a077f0d742,18,Female,Right handed,2021-07-26_20h58.50.760,MA Experiment 2,2021.1.2,MacIntel,58.82352941,0,2,2,12,1,,,,,
1.459,response_1,,SHOULDER,NEWSPAPER,,,,,,VIOLET,LUBRICANT,long,resources/sound/catchTrials/audio_control_comp_project07.mp3,60fc2220e5b6f3a077f0d742,18,Female,Right handed,2021-07-26_20h58.50.760,MA Experiment 2,2021.1.2,MacIntel,58.82352941,,,,,,0,8,8,19,1
0.78,response_2,shortValid,MEASLES,FISHERMAN,,,,,,ROBBER,RATTLESNAKE,short,resources/sound/trials/audio_stim_human64.mp3,60fc2220e5b6f3a077f0d742,18,Female,Right handed,2021-07-26_20h58.50.760,MA Experiment 2,2021.1.2,MacIntel,58.82352941,0,3,3,15,1,,,,,
1.425,response_2,longFoil,LIGHTNING,SETTLEMENT,,,,,,RUBBER,PROPERTY,long,resources/sound/trials/audio_stim_human0.mp3,60fc2220e5b6f3a077f0d742,18,Female,Right handed,2021-07-26_20h58.50.760,MA Experiment 2,2021.1.2,MacIntel,58.82352941,0,4,4,29,1,,,,,
1.627,response_2,longFoil,HAMSTER,MONUMENT,,,,,,PARTY,SANCTUARY,short,resources/sound/trials/audio_stim_human50.mp3,60fc2220e5b6f3a077f0d742,18,Female,Right handed,2021-07-26_20h58.50.760,MA Experiment 2,2021.1.2,MacIntel,58.82352941,0,5,5,14,1,,,,,
1.777,response_1,shortValid,CAPTAIN,GORILLA,,,,,,BRAINSTORM,GREEN NEEDLE,long,resources/sound/trials/audio_stim_original.mp3,60fc2220e5b6f3a077f0d742,18,Female,Right handed,2021-07-26_20h58.50.760,MA Experiment 2,2021.1.2,MacIntel,58.82352941,0,6,6,33,1,,,,,
1.247,response_2,,NEIGHBOUR,APPLIANCE,,,,,,NAVY,RECTANGLE,long,resources/sound/catchTrials/audio_control_comp_project06.mp3,60fc2220e5b6f3a077f0d742,18,Female,Right handed,2021-07-26_20h58.50.760,MA Experiment 2,2021.1.2,MacIntel,58.82352941,,,,,,0,27,27,22,1
1.594,response_2,longFoil,GRADUATE,TANGERINE,,,,,,PARTY,SANCTUARY,long,resources/sound/trials/audio_stim_human50.mp3,60fc2220e5b6f3a077f0d742,18,Female,Right handed,2021-07-26_20h58.50.760,MA Experiment 2,2021.1.2,MacIntel,58.82352941,0,7,7,31,1,,,,,
1.895,response_4,longFoil,TUMBLE,FIREWOOD,,,,,,ATHLETE,IVORY,long,resources/sound/trials/audio_stim_comp57.mp3,60fc2220e5b6f3a077f0d742,18,Female,Right handed,2021-07-26_20h58.50.760,MA Experiment 2,2021.1.2,MacIntel,58.82352941,0,8,8,22,1,,,,,
1.31,response_1,shortValid,TWEEZER,INJURY,,,,,,DAYLIGHT,MATERIAL,short,resources/sound/trials/audio_stim_human42.mp3,60fc2220e5b6f3a077f0d742,18,Female,Right handed,2021-07-26_20h58.50.760,MA Experiment 2,2021.1.2,MacIntel,58.82352941,0,9,9,9,1,,,,,
0.891,response_1,longValid,POLO,DISSECTION,,,,,,MINER,EMERALD,short,resources/sound/trials/audio_stim_human6.mp3,60fc2220e5b6f3a077f0d742,18,Female,Right handed,2021-07-26_20h58.50.760,MA Experiment 2,2021.1.2,MacIntel,58.82352941,0,10,10,13,1,,,,,
1.093,response_2,,CANTEEN,OPENING,,,,,,CORNER,ENGINEER,short,resources/sound/catchTrials/audio_control_comp_project14.mp3,60fc2220e5b6f3a077f0d742,18,Female,Right handed,2021-07-26_20h58.50.760,MA Experiment 2,2021.1.2,MacIntel,58.82352941,,,,,,0,13,13,1,1
1.993,response_2,longValid,MEDICINE,POTATO,,,,,,PAINTER,VEHICLE,long,resources/sound/trials/audio_stim_human47.mp3,60fc2220e5b6f3a077f0d742,18,Female,Right handed,2021-07-26_20h58.50.760,MA Experiment 2,2021.1.2,MacIntel,58.82352941,0,11,11,28,1,,,,,
0.943,response_2,shortFoil,OFFICE,MERCURY,,,,,,WORKER,VISITOR,short,resources/sound/trials/audio_stim_comp17.mp3,60fc2220e5b6f3a077f0d742,18,Female,Right handed,2021-07-26_20h58.50.760,MA Experiment 2,2021.1.2,MacIntel,58.82352941,0,12,12,6,1,,,,,
1.442,response_1,shortValid,STATION,BEVERAGE,,,,,,MARBLE,CUSTOMER,long,resources/sound/trials/audio_stim_comp65.mp3,60fc2220e5b6f3a077f0d742,18,Female,Right handed,2021-07-26_20h58.50.760,MA Experiment 2,2021.1.2,MacIntel,58.82352941,0,13,13,21,1,,,,,
1.876,response_1,longFoil,SINGER,LECTURER,,,,,,BRAINSTORM,GREEN NEEDLE,short,resources/sound/trials/audio_stim_original.mp3,60fc2220e5b6f3a077f0d742,18,Female,Right handed,2021-07-26_20h58.50.760,MA Experiment 2,2021.1.2,MacIntel,58.82352941,0,14,14,16,1,,,,,
1.626,response_1,,PERSON,CARNATION,,,,,,POISON,REVOLVER,short,resources/sound/catchTrials/audio_control_human_project01.mp3,60fc2220e5b6f3a077f0d742,18,Female,Right handed,2021-07-26_20h58.50.760,MA Experiment 2,2021.1.2,MacIntel,58.82352941,,,,,,0,15,15,9,1
1.225,response_2,shortFoil,INCOME,HEADQUARTERS,,,,,,HARDWARE,OVERCOAT,short,resources/sound/trials/audio_stim_human35.mp3,60fc2220e5b6f3a077f0d742,18,Female,Right handed,2021-07-26_20h58.50.760,MA Experiment 2,2021.1.2,MacIntel,58.82352941,0,15,15,8,1,,,,,
1.375,response_1,shortFoil,DOORWAY,VINEGAR,,,,,,ATHLETE,IVORY,short,resources/sound/trials/audio_stim_comp57.mp3,60fc2220e5b6f3a077f0d742,18,Female,Right handed,2021-07-26_20h58.50.760,MA Experiment 2,2021.1.2,MacIntel,58.82352941,0,16,16,5,1,,,,,
1.179,response_2,shortValid,CURFEW,ICICLE,,,,,,ROBBER,RATTLESNAKE,long,resources/sound/trials/audio_stim_human64.mp3,60fc2220e5b6f3a077f0d742,18,Female,Right handed,2021-07-26_20h58.50.760,MA Experiment 2,2021.1.2,MacIntel,58.82352941,0,17,17,32,1,,,,,
1.61,response_1,shortFoil,SCOOTER,ORNAMENT,,,,,,CONCRETE,ENEMY,short,resources/sound/trials/audio_stim_human67.mp3,60fc2220e5b6f3a077f0d742,18,Female,Right handed,2021-07-26_20h58.50.760,MA Experiment 2,2021.1.2,MacIntel,58.82352941,0,18,18,10,1,,,,,
1.16,response_2,,FATHER,FAMILY,,,,,,HOBBY,COLONY,long,resources/sound/catchTrials/audio_control_human_project04.mp3,60fc2220e5b6f3a077f0d742,18,Female,Right handed,2021-07-26_20h58.50.760,MA Experiment 2,2021.1.2,MacIntel,58.82352941,,,,,,0,9,9,27,1
1.776,response_1,shortValid,TEMPLE,GYMNASTICS,,,,,,MARBLE,CUSTOMER,short,resources/sound/trials/audio_stim_comp65.mp3,60fc2220e5b6f3a077f0d742,18,Female,Right handed,2021-07-26_20h58.50.760,MA Experiment 2,2021.1.2,MacIntel,58.82352941,0,19,19,4,1,,,,,
1.194,response_2,shortFoil,PIPING,FACTORY,,,,,,MINER,EMERALD,long,resources/sound/trials/audio_stim_human6.mp3,60fc2220e5b6f3a077f0d742,18,Female,Right handed,2021-07-26_20h58.50.760,MA Experiment 2,2021.1.2,MacIntel,58.82352941,0,20,20,30,1,,,,,
1.543,response_1,longFoil,CIGAR,GINGERBREAD,,,,,,DRIZZLE,CARDINAL,short,resources/sound/trials/audio_stim_comp69.mp3,60fc2220e5b6f3a077f0d742,18,Female,Right handed,2021-07-26_20h58.50.760,MA Experiment 2,2021.1.2,MacIntel,58.82352941,0,21,21,0,1,,,,,
1.71,response_1,longFoil,PRINCESS,ASBESTOS,,,,,,PAINTER,VEHICLE,short,resources/sound/trials/audio_stim_human47.mp3,60fc2220e5b6f3a077f0d742,18,Female,Right handed,2021-07-26_20h58.50.760,MA Experiment 2,2021.1.2,MacIntel,58.82352941,0,22,22,11,1,,,,,
1.095,response_2,,RABBI,COMMITTEE,,,,,,NAVY,RECTANGLE,short,resources/sound/catchTrials/audio_control_comp_project06.mp3,60fc2220e5b6f3a077f0d742,18,Female,Right handed,2021-07-26_20h58.50.760,MA Experiment 2,2021.1.2,MacIntel,58.82352941,,,,,,0,3,3,6,1
0.71,response_2,longValid,FEVER,MECHANIC,,,,,,HARDWARE,OVERCOAT,long,resources/sound/trials/audio_stim_human35.mp3,60fc2220e5b6f3a077f0d742,18,Female,Right handed,2021-07-26_20h58.50.760,MA Experiment 2,2021.1.2,MacIntel,58.82352941,0,23,23,25,1,,,,,
1.026,response_2,shortFoil,WALRUS,CANDLELIGHT,,,,,,MINER,EMERALD,long,resources/sound/trials/audio_stim_comp6.mp3,60fc2220e5b6f3a077f0d742,18,Female,Right handed,2021-07-26_20h58.50.760,MA Experiment 2,2021.1.2,MacIntel,58.82352941,0,24,24,18,1,,,,,
1.792,response_2,longFoil,PIANO,CABINET,,,,,,WORKER,VISITOR,long,resources/sound/trials/audio_stim_comp17.mp3,60fc2220e5b6f3a077f0d742,18,Female,Right handed,2021-07-26_20h58.50.760,MA Experiment 2,2021.1.2,MacIntel,58.82352941,0,25,25,23,1,,,,,
1.227,response_1,longFoil,UNCLE,MICROSCOPE,,,,,,DAYLIGHT,MATERIAL,long,resources/sound/trials/audio_stim_human42.mp3,60fc2220e5b6f3a077f0d742,18,Female,Right handed,2021-07-26_20h58.50.760,MA Experiment 2,2021.1.2,MacIntel,58.82352941,0,26,26,26,1,,,,,
1.075,response_2,,VESSEL,PROJECTOR,,,,,,ICY,JITTERBUG,short,resources/sound/catchTrials/audio_control_comp_project08.mp3,60fc2220e5b6f3a077f0d742,18,Female,Right handed,2021-07-26_20h58.50.760,MA Experiment 2,2021.1.2,MacIntel,58.82352941,,,,,,0,30,30,7,1
1.211,response_2,shortFoil,DANCER,SPECIALIST,,,,,,RECEIPT,LIMOUSINE,short,resources/sound/trials/audio_stim_comp40.mp3,60fc2220e5b6f3a077f0d742,18,Female,Right handed,2021-07-26_20h58.50.760,MA Experiment 2,2021.1.2,MacIntel,58.82352941,0,27,27,2,1,,,,,
0.993,response_1,longValid,TORTURE,REFEREE,,,,,,SACRED,GALAXY,long,resources/sound/trials/audio_stim_comp1.mp3,60fc2220e5b6f3a077f0d742,18,Female,Right handed,2021-07-26_20h58.50.760,MA Experiment 2,2021.1.2,MacIntel,58.82352941,0,28,28,24,1,,,,,
1.163,response_1,shortValid,PODIUM,INSTITUTE,,,,,,CONCRETE,ENEMY,long,resources/sound/trials/audio_stim_human67.mp3,60fc2220e5b6f3a077f0d742,18,Female,Right handed,2021-07-26_20h58.50.760,MA Experiment 2,2021.1.2,MacIntel,58.82352941,0,29,29,27,1,,,,,
1.476,response_2,longValid,MURDER,CONVENTION,,,,,,WHISTLE,TREASURER,short,resources/sound/trials/audio_stim_comp12.mp3,60fc2220e5b6f3a077f0d742,18,Female,Right handed,2021-07-26_20h58.50.760,MA Experiment 2,2021.1.2,MacIntel,58.82352941,0,30,30,3,1,,,,,
2.01,response_2,,DECOY,GRASSHOPPER,,,,,,IRIS,VIOLIN,long,resources/sound/catchTrials/audio_control_comp_project12.mp3,60fc2220e5b6f3a077f0d742,18,Female,Right handed,2021-07-26_20h58.50.760,MA Experiment 2,2021.1.2,MacIntel,58.82352941,,,,,,0,21,21,20,1
1.708,response_1,shortFoil,KENNEL,SAXOPHONE,,,,,,WHISTLE,TREASURER,long,resources/sound/trials/audio_stim_comp12.mp3,60fc2220e5b6f3a077f0d742,18,Female,Right handed,2021-07-26_20h58.50.760,MA Experiment 2,2021.1.2,MacIntel,58.82352941,0,31,31,20,1,,,,,
1.207,response_1,shortFoil,RUSTY,HOSPITAL,,,,,,DRIZZLE,CARDINAL,long,resources/sound/trials/audio_stim_comp69.mp3,60fc2220e5b6f3a077f0d742,18,Female,Right handed,2021-07-26_20h58.50.760,MA Experiment 2,2021.1.2,MacIntel,58.82352941,0,32,32,17,1,,,,,
1.209,response_2,longValid,HAMMER,PROPELLER,,,,,,RECEIPT,LIMOUSINE,long,resources/sound/trials/audio_stim_comp40.mp3,60fc2220e5b6f3a077f0d742,18,Female,Right handed,2021-07-26_20h58.50.760,MA Experiment 2,2021.1.2,MacIntel,58.82352941,0,33,33,19,1,,,,,
1.792,response_1,shortValid,BURNER,EMULSION,,,,,,WORKER,VISITOR,long,resources/sound/trials/audio_stim_comp17.mp3,60fc2220e5b6f3a077f0d742,18,Female,Right handed,2021-07-26_20h58.50.760,MA Experiment 2,2021.1.2,MacIntel,58.82352941,1,0,34,23,1,,,,,
1.111,response_2,longValid,BEETLE,ABDOMEN,,,,,,BRAINSTORM,GREEN NEEDLE,short,resources/sound/trials/audio_stim_original.mp3,60fc2220e5b6f3a077f0d742,18,Female,Right handed,2021-07-26_20h58.50.760,MA Experiment 2,2021.1.2,MacIntel,58.82352941,1,1,35,16,1,,,,,
1.478,response_2,shortFoil,BISHOP,JANITOR,,,,,,BRAINSTORM,GREEN NEEDLE,long,resources/sound/trials/audio_stim_original.mp3,60fc2220e5b6f3a077f0d742,18,Female,Right handed,2021-07-26_20h58.50.760,MA Experiment 2,2021.1.2,MacIntel,58.82352941,1,2,36,33,1,,,,,
1.158,response_1,,CEREAL,NEIGHBOURHOOD,,,,,,JUGGLER,DANDELION,short,resources/sound/catchTrials/audio_control_human_project09.mp3,60fc2220e5b6f3a077f0d742,18,Female,Right handed,2021-07-26_20h58.50.760,MA Experiment 2,2021.1.2,MacIntel,58.82352941,,,,,,0,26,26,15,1
0.993,response_1,shortValid,KETTLE,ANTIQUE,,,,,,CONCRETE,ENEMY,short,resources/sound/trials/audio_stim_human67.mp3,60fc2220e5b6f3a077f0d742,18,Female,Right handed,2021-07-26_20h58.50.760,MA Experiment 2,2021.1.2,MacIntel,58.82352941,1,3,37,10,1,,,,,
1.709,response_2,shortValid,LOBSTER,MOLECULE,,,,,,WHISTLE,TREASURER,long,resources/sound/trials/audio_stim_comp12.mp3,60fc2220e5b6f3a077f0d742,18,Female,Right handed,2021-07-26_20h58.50.760,MA Experiment 2,2021.1.2,MacIntel,58.82352941,1,4,38,20,1,,,,,
1.226,response_2,longFoil,LIQUID,CITIZEN,,,,,,HARDWARE,OVERCOAT,long,resources/sound/trials/audio_stim_human35.mp3,60fc2220e5b6f3a077f0d742,18,Female,Right handed,2021-07-26_20h58.50.760,MA Experiment 2,2021.1.2,MacIntel,58.82352941,1,5,39,25,1,,,,,
1.443,response_1,longFoil,MUSCLE,LEMONADE,,,,,,ATHLETE,IVORY,short,resources/sound/trials/audio_stim_comp57.mp3,60fc2220e5b6f3a077f0d742,18,Female,Right handed,2021-07-26_20h58.50.760,MA Experiment 2,2021.1.2,MacIntel,58.82352941,1,6,40,5,1,,,,,
0.909,response_2,,WINDOW,CATHEDRAL,,,,,,CORNER,ENGINEER,long,resources/sound/catchTrials/audio_control_comp_project14.mp3,60fc2220e5b6f3a077f0d742,18,Female,Right handed,2021-07-26_20h58.50.760,MA Experiment 2,2021.1.2,MacIntel,58.82352941,,,,,,0,10,10,17,1
1.493,response_1,longFoil,SHEEPSKIN,MESSENGER,,,,,,SACRED,GALAXY,long,resources/sound/trials/audio_stim_comp1.mp3,60fc2220e5b6f3a077f0d742,18,Female,Right handed,2021-07-26_20h58.50.760,MA Experiment 2,2021.1.2,MacIntel,58.82352941,1,7,41,24,1,,,,,
0.958,response_2,longValid,NAPKIN,ACROBAT,,,,,,MARBLE,CUSTOMER,long,resources/sound/trials/audio_stim_comp65.mp3,60fc2220e5b6f3a077f0d742,18,Female,Right handed,2021-07-26_20h58.50.760,MA Experiment 2,2021.1.2,MacIntel,58.82352941,1,8,42,21,1,,,,,
1.093,response_1,longFoil,NECKLACE,PHYSICIAN,,,,,,CONCRETE,ENEMY,long,resources/sound/trials/audio_stim_human67.mp3,60fc2220e5b6f3a077f0d742,18,Female,Right handed,2021-07-26_20h58.50.760,MA Experiment 2,2021.1.2,MacIntel,58.82352941,1,9,43,27,1,,,,,
0.979,response_2,shortFoil,WRITING,CAPITAL,,,,,,ROBBER,RATTLESNAKE,short,resources/sound/trials/audio_stim_human64.mp3,60fc2220e5b6f3a077f0d742,18,Female,Right handed,2021-07-26_20h58.50.760,MA Experiment 2,2021.1.2,MacIntel,58.82352941,1,10,44,15,1,,,,,
1.143,response_2,,MURAL,POLIO,,,,,,ICY,JITTERBUG,long,resources/sound/catchTrials/audio_control_comp_project08.mp3,60fc2220e5b6f3a077f0d742,18,Female,Right handed,2021-07-26_20h58.50.760,MA Experiment 2,2021.1.2,MacIntel,58.82352941,,,,,,0,19,19,23,1
1.544,response_2,longValid,HARBOUR,INSTRUMENT,,,,,,MARBLE,CUSTOMER,short,resources/sound/trials/audio_stim_comp65.mp3,60fc2220e5b6f3a077f0d742,18,Female,Right handed,2021-07-26_20h58.50.760,MA Experiment 2,2021.1.2,MacIntel,58.82352941,1,11,45,4,1,,,,,
0.96,response_1,shortValid,JURY,PROFESSOR,,,,,,PARTY,SANCTUARY,short,resources/sound/trials/audio_stim_human50.mp3,60fc2220e5b6f3a077f0d742,18,Female,Right handed,2021-07-26_20h58.50.760,MA Experiment 2,2021.1.2,MacIntel,58.82352941,1,12,46,14,1,,,,,
0.946,response_2,shortFoil,TRAITOR,OXYGEN,,,,,,ROBBER,RATTLESNAKE,long,resources/sound/trials/audio_stim_human64.mp3,60fc2220e5b6f3a077f0d742,18,Female,Right handed,2021-07-26_20h58.50.760,MA Experiment 2,2021.1.2,MacIntel,58.82352941,1,13,47,32,1,,,,,
0.993,response_2,longFoil,CRYSTAL,DESTROYER,,,,,,MINER,EMERALD,long,resources/sound/trials/audio_stim_human6.mp3,60fc2220e5b6f3a077f0d742,18,Female,Right handed,2021-07-26_20h58.50.760,MA Experiment 2,2021.1.2,MacIntel,58.82352941,1,14,48,30,1,,,,,
1.16,response_2,,DIAL,GOVERNMENT,,,,,,IRIS,VIOLIN,long,resources/sound/catchTrials/audio_control_human_project12.mp3,60fc2220e5b6f3a077f0d742,18,Female,Right handed,2021-07-26_20h58.50.760,MA Experiment 2,2021.1.2,MacIntel,58.82352941,,,,,,0,23,23,24,1
1.559,response_2,shortValid,DWELLER,TEMPERATURE,,,,,,MINER,EMERALD,short,resources/sound/trials/audio_stim_human6.mp3,60fc2220e5b6f3a077f0d742,18,Female,Right handed,2021-07-26_20h58.50.760,MA Experiment 2,2021.1.2,MacIntel,58.82352941,1,15,49,13,1,,,,,
1.711,response_1,shortFoil,MORNING,PHOTOGRAPH,,,,,,MINER,EMERALD,short,resources/sound/trials/audio_stim_comp6.mp3,60fc2220e5b6f3a077f0d742,18,Female,Right handed,2021-07-26_20h58.50.760,MA Experiment 2,2021.1.2,MacIntel,58.82352941,1,16,50,1,1,,,,,
1.758,response_1,longValid,ANCHOR,ALCOHOL,,,,,,PAINTER,VEHICLE,short,resources/sound/trials/audio_stim_human47.mp3,60fc2220e5b6f3a077f0d742,18,Female,Right handed,2021-07-26_20h58.50.760,MA Experiment 2,2021.1.2,MacIntel,58.82352941,1,17,51,11,1,,,,,
0.926,response_2,longFoil,LEADER,CORRIDOR,,,,,,RUBBER,PROPERTY,short,resources/sound/trials/audio_stim_human0.mp3,60fc2220e5b6f3a077f0d742,18,Female,Right handed,2021-07-26_20h58.50.760,MA Experiment 2,2021.1.2,MacIntel,58.82352941,1,18,52,12,1,,,,,
1.044,response_2,,PATIENT,MINISTER,,,,,,SPINACH,APRICOT,short,resources/sound/catchTrials/audio_control_comp_project18.mp3,60fc2220e5b6f3a077f0d742,18,Female,Right handed,2021-07-26_20h58.50.760,MA Experiment 2,2021.1.2,MacIntel,58.82352941,,,,,,0,5,5,5,1
1.16,response_1,shortFoil,SULPHUR,HURRICANE,,,,,,DRIZZLE,CARDINAL,short,resources/sound/trials/audio_stim_comp69.mp3,60fc2220e5b6f3a077f0d742,18,Female,Right handed,2021-07-26_20h58.50.760,MA Experiment 2,2021.1.2,MacIntel,58.82352941,1,19,53,0,1,,,,,
1.375,response_1,shortValid,DUEL,GALLERY,,,,,,PAINTER,VEHICLE,long,resources/sound/trials/audio_stim_human47.mp3,60fc2220e5b6f3a077f0d742,18,Female,Right handed,2021-07-26_20h58.50.760,MA Experiment 2,2021.1.2,MacIntel,58.82352941,1,20,54,28,1,,,,,
0.892,response_2,longValid,SOFA,DIAMOND,,,,,,MINER,EMERALD,long,resources/sound/trials/audio_stim_comp6.mp3,60fc2220e5b6f3a077f0d742,18,Female,Right handed,2021-07-26_20h58.50.760,MA Experiment 2,2021.1.2,MacIntel,58.82352941,1,21,55,18,1,,,,,
1.161,response_1,shortValid,INVOICE,HANDKERCHIEF,,,,,,PARTY,SANCTUARY,long,resources/sound/trials/audio_stim_human50.mp3,60fc2220e5b6f3a077f0d742,18,Female,Right handed,2021-07-26_20h58.50.760,MA Experiment 2,2021.1.2,MacIntel,58.82352941,1,22,56,31,1,,,,,
0.942,response_2,,HURDLE,AVENUE,,,,,,NAVY,RECTANGLE,short,resources/sound/catchTrials/audio_control_human_project06.mp3,60fc2220e5b6f3a077f0d742,18,Female,Right handed,2021-07-26_20h58.50.760,MA Experiment 2,2021.1.2,MacIntel,58.82352941,,,,,,0,29,29,14,1
1.359,response_2,shortFoil,ACRE,CIGARETTE,,,,,,DAYLIGHT,MATERIAL,long,resources/sound/trials/audio_stim_human42.mp3,60fc2220e5b6f3a077f0d742,18,Female,Right handed,2021-07-26_20h58.50.760,MA Experiment 2,2021.1.2,MacIntel,58.82352941,1,23,57,26,1,,,,,
0.928,response_2,longValid,MOONLIGHT,RETAILER,,,,,,WORKER,VISITOR,short,resources/sound/trials/audio_stim_comp17.mp3,60fc2220e5b6f3a077f0d742,18,Female,Right handed,2021-07-26_20h58.50.760,MA Experiment 2,2021.1.2,MacIntel,58.82352941,1,24,58,6,1,,,,,
1.308,response_1,shortValid,VALLEY,BUTTERFLY,,,,,,ATHLETE,IVORY,long,resources/sound/trials/audio_stim_comp57.mp3,60fc2220e5b6f3a077f0d742,18,Female,Right handed,2021-07-26_20h58.50.760,MA Experiment 2,2021.1.2,MacIntel,58.82352941,1,25,59,22,1,,,,,
0.864,response_1,shortValid,PICTURE,INTERVIEW,,,,,,SACRED,GALAXY,short,resources/sound/trials/audio_stim_comp1.mp3,60fc2220e5b6f3a077f0d742,18,Female,Right handed,2021-07-26_20h58.50.760,MA Experiment 2,2021.1.2,MacIntel,58.82352941,1,26,60,7,1,,,,,
1.142,response_2,,FAIRY,INDUSTRY,,,,,,CORNER,ENGINEER,short,resources/sound/catchTrials/audio_control_human_project14.mp3,60fc2220e5b6f3a077f0d742,18,Female,Right handed,2021-07-26_20h58.50.760,MA Experiment 2,2021.1.2,MacIntel,58.82352941,,,,,,0,14,14,10,1
1.76,response_2,longFoil,SADDLE,ATHLETICS,,,,,,RECEIPT,LIMOUSINE,long,resources/sound/trials/audio_stim_comp40.mp3,60fc2220e5b6f3a077f0d742,18,Female,Right handed,2021-07-26_20h58.50.760,MA Experiment 2,2021.1.2,MacIntel,58.82352941,1,27,61,19,1,,,,,
0.898,response_2,longValid,EVENING,MEDICINE,,,,,,RECEIPT,LIMOUSINE,short,resources/sound/trials/audio_stim_comp40.mp3,60fc2220e5b6f3a077f0d742,18,Female,Right handed,2021-07-26_20h58.50.760,MA Experiment 2,2021.1.2,MacIntel,58.82352941,1,28,62,2,1,,,,,
1.11,response_2,shortValid,FERTILE,CHOCOLATE,,,,,,HARDWARE,OVERCOAT,short,resources/sound/trials/audio_stim_human35.mp3,60fc2220e5b6f3a077f0d742,18,Female,Right handed,2021-07-26_20h58.50.760,MA Experiment 2,2021.1.2,MacIntel,58.82352941,1,29,63,8,1,,,,,
1.192,response_1,shortFoil,SODA,POLICEMAN,,,,,,DAYLIGHT,MATERIAL,short,resources/sound/trials/audio_stim_human42.mp3,60fc2220e5b6f3a077f0d742,18,Female,Right handed,2021-07-26_20h58.50.760,MA Experiment 2,2021.1.2,MacIntel,58.82352941,1,30,64,9,1,,,,,
1.234,response_1,,BERRY,ADMIRAL,,,,,,JUGGLER,DANDELION,long,resources/sound/catchTrials/audio_control_human_project09.mp3,60fc2220e5b6f3a077f0d742,18,Female,Right handed,2021-07-26_20h58.50.760,MA Experiment 2,2021.1.2,MacIntel,58.82352941,,,,,,0,28,28,31,1
0.846,response_1,shortValid,NURSERY,ENAMEL,,,,,,DRIZZLE,CARDINAL,long,resources/sound/trials/audio_stim_comp69.mp3,60fc2220e5b6f3a077f0d742,18,Female,Right handed,2021-07-26_20h58.50.760,MA Experiment 2,2021.1.2,MacIntel,58.82352941,1,31,65,17,1,,,,,
2.825,response_2,longFoil,STOCKING,CINNAMON,,,,,,WHISTLE,TREASURER,short,resources/sound/trials/audio_stim_comp12.mp3,60fc2220e5b6f3a077f0d742,18,Female,Right handed,2021-07-26_20h58.50.760,MA Experiment 2,2021.1.2,MacIntel,58.82352941,1,32,66,3,1,,,,,
1.176,response_2,shortValid,FOREARM,AMMONIA,,,,,,RUBBER,PROPERTY,long,resources/sound/trials/audio_stim_human0.mp3,60fc2220e5b6f3a077f0d742,18,Female,Right handed,2021-07-26_20h58.50.760,MA Experiment 2,2021.1.2,MacIntel,58.82352941,1,33,67,29,1,,,,,
1.377,response_2,shortFoil,OLIVE,HONEYMOON,,,,,,PAINTER,VEHICLE,short,resources/sound/trials/audio_stim_human47.mp3,60fc2220e5b6f3a077f0d742,18,Female,Right handed,2021-07-26_20h58.50.760,MA Experiment 2,2021.1.2,MacIntel,58.82352941,2,0,68,11,1,,,,,
0.527,response_2,longValid,DIAL,JANITOR,,,,,,MINER,EMERALD,long,resources/sound/trials/audio_stim_human6.mp3,60fc2220e5b6f3a077f0d742,18,Female,Right handed,2021-07-26_20h58.50.760,MA Experiment 2,2021.1.2,MacIntel,58.82352941,2,1,69,30,1,,,,,
1.092,response_2,shortValid,FATHER,TANGERINE,,,,,,WORKER,VISITOR,short,resources/sound/trials/audio_stim_comp17.mp3,60fc2220e5b6f3a077f0d742,18,Female,Right handed,2021-07-26_20h58.50.760,MA Experiment 2,2021.1.2,MacIntel,58.82352941,2,2,70,6,1,,,,,
1.143,response_2,,MEASLES,CATHEDRAL,,,,,,IRIS,VIOLIN,short,resources/sound/catchTrials/audio_control_human_project12.mp3,60fc2220e5b6f3a077f0d742,18,Female,Right handed,2021-07-26_20h58.50.760,MA Experiment 2,2021.1.2,MacIntel,58.82352941,,,,,,0,20,20,8,1
1.196,response_1,shortValid,SCOOTER,MONUMENT,,,,,,DRIZZLE,CARDINAL,short,resources/sound/trials/audio_stim_comp69.mp3,60fc2220e5b6f3a077f0d742,18,Female,Right handed,2021-07-26_20h58.50.760,MA Experiment 2,2021.1.2,MacIntel,58.82352941,2,3,71,0,1,,,,,
1.395,response_1,longValid,SEGMENT,INFECTION,,,,,,ATHLETE,IVORY,short,resources/sound/trials/audio_stim_comp57.mp3,60fc2220e5b6f3a077f0d742,18,Female,Right handed,2021-07-26_20h58.50.760,MA Experiment 2,2021.1.2,MacIntel,58.82352941,2,4,72,5,1,,,,,
1.109,response_1,shortValid,OLIVE,DISSECTION,,,,,,MINER,EMERALD,short,resources/sound/trials/audio_stim_comp6.mp3,60fc2220e5b6f3a077f0d742,18,Female,Right handed,2021-07-26_20h58.50.760,MA Experiment 2,2021.1.2,MacIntel,58.82352941,2,5,73,1,1,,,,,
1.143,response_2,longFoil,TEMPLE,TEMPERATURE,,,,,,BRAINSTORM,GREEN NEEDLE,long,resources/sound/trials/audio_stim_original.mp3,60fc2220e5b6f3a077f0d742,18,Female,Right handed,2021-07-26_20h58.50.760,MA Experiment 2,2021.1.2,MacIntel,58.82352941,2,6,74,33,1,,,,,
1.71,response_2,,VILLAGE,DIAMOND,,,,,,JOURNAL,ROBBERY,long,resources/sound/catchTrials/audio_control_human_project02.mp3,60fc2220e5b6f3a077f0d742,18,Female,Right handed,2021-07-26_20h58.50.760,MA Experiment 2,2021.1.2,MacIntel,58.82352941,,,,,,0,25,25,29,1
1.143,response_2,longValid,JURY,INTERVIEW,,,,,,SACRED,GALAXY,short,resources/sound/trials/audio_stim_comp1.mp3,60fc2220e5b6f3a077f0d742,18,Female,Right handed,2021-07-26_20h58.50.760,MA Experiment 2,2021.1.2,MacIntel,58.82352941,2,7,75,7,1,,,,,
1.745,response_2,shortFoil,TWEEZER,ASBESTOS,,,,,,SACRED,GALAXY,long,resources/sound/trials/audio_stim_comp1.mp3,60fc2220e5b6f3a077f0d742,18,Female,Right handed,2021-07-26_20h58.50.760,MA Experiment 2,2021.1.2,MacIntel,58.82352941,2,8,76,24,1,,,,,
1.309,response_1,longValid,WIRE,CITIZEN,,,,,,DAYLIGHT,MATERIAL,short,resources/sound/trials/audio_stim_human42.mp3,60fc2220e5b6f3a077f0d742,18,Female,Right handed,2021-07-26_20h58.50.760,MA Experiment 2,2021.1.2,MacIntel,58.82352941,2,9,77,9,1,,,,,
1.876,response_1,longFoil,SHEEPSKIN,CHOCOLATE,,,,,,WHISTLE,TREASURER,long,resources/sound/trials/audio_stim_comp12.mp3,60fc2220e5b6f3a077f0d742,18,Female,Right handed,2021-07-26_20h58.50.760,MA Experiment 2,2021.1.2,MacIntel,58.82352941,2,10,78,20,1,,,,,
1.176,response_2,,FERTILE,CAPITAL,,,,,,IRIS,VIOLIN,short,resources/sound/catchTrials/audio_control_comp_project12.mp3,60fc2220e5b6f3a077f0d742,18,Female,Right handed,2021-07-26_20h58.50.760,MA Experiment 2,2021.1.2,MacIntel,58.82352941,,,,,,0,0,0,4,1
0.891,response_1,longValid,HURDLE,VINEGAR,,,,,,ATHLETE,IVORY,long,resources/sound/trials/audio_stim_comp57.mp3,60fc2220e5b6f3a077f0d742,18,Female,Right handed,2021-07-26_20h58.50.760,MA Experiment 2,2021.1.2,MacIntel,58.82352941,2,11,79,22,1,,,,,
1.493,response_1,longFoil,BEETLE,CORRIDOR,,,,,,MARBLE,CUSTOMER,short,resources/sound/trials/audio_stim_comp65.mp3,60fc2220e5b6f3a077f0d742,18,Female,Right handed,2021-07-26_20h58.50.760,MA Experiment 2,2021.1.2,MacIntel,58.82352941,2,12,80,4,1,,,,,
1.459,response_2,shortFoil,STATION,MERCURY,,,,,,HARDWARE,OVERCOAT,long,resources/sound/trials/audio_stim_human35.mp3,60fc2220e5b6f3a077f0d742,18,Female,Right handed,2021-07-26_20h58.50.760,MA Experiment 2,2021.1.2,MacIntel,58.82352941,2,13,81,25,1,,,,,
1.259,response_2,shortFoil,BURNER,COMMITTEE,,,,,,MINER,EMERALD,short,resources/sound/trials/audio_stim_human6.mp3,60fc2220e5b6f3a077f0d742,18,Female,Right handed,2021-07-26_20h58.50.760,MA Experiment 2,2021.1.2,MacIntel,58.82352941,2,14,82,13,1,,,,,
1.161,response_1,,VAPOUR,LECTURER,,,,,,POISON,REVOLVER,long,resources/sound/catchTrials/audio_control_human_project01.mp3,60fc2220e5b6f3a077f0d742,18,Female,Right handed,2021-07-26_20h58.50.760,MA Experiment 2,2021.1.2,MacIntel,58.82352941,,,,,,0,11,11,25,1
1.18,response_2,longFoil,CHIPMUNK,FAMILY,,,,,,ROBBER,RATTLESNAKE,short,resources/sound/trials/audio_stim_human64.mp3,60fc2220e5b6f3a077f0d742,18,Female,Right handed,2021-07-26_20h58.50.760,MA Experiment 2,2021.1.2,MacIntel,58.82352941,2,15,83,15,1,,,,,
1.326,response_2,longFoil,TORTURE,APPLIANCE,,,,,,RECEIPT,LIMOUSINE,short,resources/sound/trials/audio_stim_comp40.mp3,60fc2220e5b6f3a077f0d742,18,Female,Right handed,2021-07-26_20h58.50.760,MA Experiment 2,2021.1.2,MacIntel,58.82352941,2,16,84,2,1,,,,,
1.912,response_2,shortFoil,NOVEL,ADMIRAL,,,,,,RECEIPT,LIMOUSINE,long,resources/sound/trials/audio_stim_comp40.mp3,60fc2220e5b6f3a077f0d742,18,Female,Right handed,2021-07-26_20h58.50.760,MA Experiment 2,2021.1.2,MacIntel,58.82352941,2,17,85,19,1,,,,,
0.91,response_1,shortFoil,CRYSTAL,GORILLA,,,,,,CONCRETE,ENEMY,long,resources/sound/trials/audio_stim_human67.mp3,60fc2220e5b6f3a077f0d742,18,Female,Right handed,2021-07-26_20h58.50.760,MA Experiment 2,2021.1.2,MacIntel,58.82352941,2,18,86,27,1,,,,,
1.026,response_2,,CABIN,BUTTERFLY,,,,,,SPINACH,APRICOT,long,resources/sound/catchTrials/audio_control_comp_project18.mp3,60fc2220e5b6f3a077f0d742,18,Female,Right handed,2021-07-26_20h58.50.760,MA Experiment 2,2021.1.2,MacIntel,58.82352941,,,,,,0,4,4,21,1
0.991,response_2,shortValid,ANCHOR,AMMONIA,,,,,,MINER,EMERALD,long,resources/sound/trials/audio_stim_comp6.mp3,60fc2220e5b6f3a077f0d742,18,Female,Right handed,2021-07-26_20h58.50.760,MA Experiment 2,2021.1.2,MacIntel,58.82352941,2,19,87,18,1,,,,,
0.476,response_2,longValid,PICTURE,ALCOHOL,,,,,,HARDWARE,OVERCOAT,short,resources/sound/trials/audio_stim_human35.mp3,60fc2220e5b6f3a077f0d742,18,Female,Right handed,2021-07-26_20h58.50.760,MA Experiment 2,2021.1.2,MacIntel,58.82352941,2,20,88,8,1,,,,,
1.742,response_2,shortFoil,POLO,CAMERA,,,,,,RUBBER,PROPERTY,long,resources/sound/trials/audio_stim_human0.mp3,60fc2220e5b6f3a077f0d742,18,Female,Right handed,2021-07-26_20h58.50.760,MA Experiment 2,2021.1.2,MacIntel,58.82352941,2,21,89,29,1,,,,,
1.228,response_1,longFoil,DANCER,AVENUE,,,,,,MARBLE,CUSTOMER,long,resources/sound/trials/audio_stim_comp65.mp3,60fc2220e5b6f3a077f0d742,18,Female,Right handed,2021-07-26_20h58.50.760,MA Experiment 2,2021.1.2,MacIntel,58.82352941,2,22,90,21,1,,,,,
1.21,response_1,,WRITING,MINERAL,,,,,,VIOLET,LUBRICANT,long,resources/sound/catchTrials/audio_control_human_project07.mp3,60fc2220e5b6f3a077f0d742,18,Female,Right handed,2021-07-26_20h58.50.760,MA Experiment 2,2021.1.2,MacIntel,58.82352941,,,,,,0,22,22,28,1
1.859,response_1,shortFoil,HAMSTER,LEMONADE,,,,,,PAINTER,VEHICLE,long,resources/sound/trials/audio_stim_human47.mp3,60fc2220e5b6f3a077f0d742,18,Female,Right handed,2021-07-26_20h58.50.760,MA Experiment 2,2021.1.2,MacIntel,58.82352941,2,23,91,28,1,,,,,
1.607,response_2,shortFoil,LIQUID,CIGARETTE,,,,,,WORKER,VISITOR,long,resources/sound/trials/audio_stim_comp17.mp3,60fc2220e5b6f3a077f0d742,18,Female,Right handed,2021-07-26_20h58.50.760,MA Experiment 2,2021.1.2,MacIntel,58.82352941,2,24,92,23,1,,,,,
1.21,response_2,shortValid,CEREAL,POLIO,,,,,,RUBBER,PROPERTY,short,resources/sound/trials/audio_stim_human0.mp3,60fc2220e5b6f3a077f0d742,18,Female,Right handed,2021-07-26_20h58.50.760,MA Experiment 2,2021.1.2,MacIntel,58.82352941,2,25,93,12,1,,,,,
1.411,response_1,shortValid,NEIGHBOUR,GRASSHOPPER,,,,,,BRAINSTORM,GREEN NEEDLE,short,resources/sound/trials/audio_stim_original.mp3,60fc2220e5b6f3a077f0d742,18,Female,Right handed,2021-07-26_20h58.50.760,MA Experiment 2,2021.1.2,MacIntel,58.82352941,2,26,94,16,1,,,,,
1.143,response_2,,FEVER,ANTIQUE,,,,,,HOBBY,COLONY,short,resources/sound/catchTrials/audio_control_human_project04.mp3,60fc2220e5b6f3a077f0d742,18,Female,Right handed,2021-07-26_20h58.50.760,MA Experiment 2,2021.1.2,MacIntel,58.82352941,,,,,,0,12,12,11,1
0.925,response_1,shortValid,CANTEEN,ENVELOPE,,,,,,DAYLIGHT,MATERIAL,long,resources/sound/trials/audio_stim_human42.mp3,60fc2220e5b6f3a077f0d742,18,Female,Right handed,2021-07-26_20h58.50.760,MA Experiment 2,2021.1.2,MacIntel,58.82352941,2,27,95,26,1,,,,,
1.425,response_2,longValid,KENNEL,CROCODILE,,,,,,DRIZZLE,CARDINAL,long,resources/sound/trials/audio_stim_comp69.mp3,60fc2220e5b6f3a077f0d742,18,Female,Right handed,2021-07-26_20h58.50.760,MA Experiment 2,2021.1.2,MacIntel,58.82352941,2,28,96,17,1,,,,,
1.276,response_2,longValid,DIVING,CLARINET,,,,,,PARTY,SANCTUARY,long,resources/sound/trials/audio_stim_human50.mp3,60fc2220e5b6f3a077f0d742,18,Female,Right handed,2021-07-26_20h58.50.760,MA Experiment 2,2021.1.2,MacIntel,58.82352941,2,29,97,31,1,,,,,
1.908,response_2,shortFoil,LOBSTER,ICICLE,,,,,,WHISTLE,TREASURER,short,resources/sound/trials/audio_stim_comp12.mp3,60fc2220e5b6f3a077f0d742,18,Female,Right handed,2021-07-26_20h58.50.760,MA Experiment 2,2021.1.2,MacIntel,58.82352941,2,30,98,3,1,,,,,
1.191,response_2,,SODA,EMULSION,,,,,,CORNER,ENGINEER,long,resources/sound/catchTrials/audio_control_human_project14.mp3,60fc2220e5b6f3a077f0d742,18,Female,Right handed,2021-07-26_20h58.50.760,MA Experiment 2,2021.1.2,MacIntel,58.82352941,,,,,,0,7,7,26,1
1.277,response_1,longFoil,VALLEY,DESTROYER,,,,,,CONCRETE,ENEMY,short,resources/sound/trials/audio_stim_human67.mp3,60fc2220e5b6f3a077f0d742,18,Female,Right handed,2021-07-26_20h58.50.760,MA Experiment 2,2021.1.2,MacIntel,58.82352941,2,31,99,10,1,,,,,
1.427,response_2,longValid,MEDICINE,ABDOMEN,,,,,,PARTY,SANCTUARY,short,resources/sound/trials/audio_stim_human50.mp3,60fc2220e5b6f3a077f0d742,18,Female,Right handed,2021-07-26_20h58.50.760,MA Experiment 2,2021.1.2,MacIntel,58.82352941,2,32,100,14,1,,,,,
0.78,response_2,longValid,TUMBLE,POTATO,,,,,,ROBBER,RATTLESNAKE,long,resources/sound/trials/audio_stim_human64.mp3,60fc2220e5b6f3a077f0d742,18,Female,Right handed,2021-07-26_20h58.50.760,MA Experiment 2,2021.1.2,MacIntel,58.82352941,2,33,101,32,1,,,,,
1.294,response_2,longValid,DUEL,ENAMEL,,,,,,MINER,EMERALD,short,resources/sound/trials/audio_stim_comp6.mp3,60fc2220e5b6f3a077f0d742,18,Female,Right handed,2021-07-26_20h58.50.760,MA Experiment 2,2021.1.2,MacIntel,58.82352941,3,0,102,1,1,,,,,
1.342,response_2,longValid,NATIVE,PHOTOGRAPH,,,,,,DAYLIGHT,MATERIAL,long,resources/sound/trials/audio_stim_human42.mp3,60fc2220e5b6f3a077f0d742,18,Female,Right handed,2021-07-26_20h58.50.760,MA Experiment 2,2021.1.2,MacIntel,58.82352941,3,1,103,26,1,,,,,
1.211,response_2,longFoil,RABBI,HANDKERCHIEF,,,,,,MINER,EMERALD,long,resources/sound/trials/audio_stim_comp6.mp3,60fc2220e5b6f3a077f0d742,18,Female,Right handed,2021-07-26_20h58.50.760,MA Experiment 2,2021.1.2,MacIntel,58.82352941,3,2,104,18,1,,,,,
0.808,response_2,,SADDLE,NEWSPAPER,,,,,,BORDER,ALGEBRA,long,resources/sound/catchTrials/audio_control_comp_project00.mp3,60fc2220e5b6f3a077f0d742,18,Female,Right handed,2021-07-26_20h58.50.760,MA Experiment 2,2021.1.2,MacIntel,58.82352941,,,,,,0,31,31,16,1
1.226,response_1,longFoil,OFFICE,ALPHABET,,,,,,SACRED,GALAXY,short,resources/sound/trials/audio_stim_comp1.mp3,60fc2220e5b6f3a077f0d742,18,Female,Right handed,2021-07-26_20h58.50.760,MA Experiment 2,2021.1.2,MacIntel,58.82352941,3,3,105,7,1,,,,,
1.243,response_1,shortFoil,KETTLE,MOSQUITO,,,,,,ATHLETE,IVORY,long,resources/sound/trials/audio_stim_comp57.mp3,60fc2220e5b6f3a077f0d742,18,Female,Right handed,2021-07-26_20h58.50.760,MA Experiment 2,2021.1.2,MacIntel,58.82352941,3,4,106,22,1,,,,,
1.126,response_1,shortValid,MISTRESS,MESSENGER,,,,,,RECEIPT,LIMOUSINE,long,resources/sound/trials/audio_stim_comp40.mp3,60fc2220e5b6f3a077f0d742,18,Female,Right handed,2021-07-26_20h58.50.760,MA Experiment 2,2021.1.2,MacIntel,58.82352941,3,5,107,19,1,,,,,
1.344,response_2,longValid,MOONLIGHT,CARNATION,,,,,,WHISTLE,TREASURER,long,resources/sound/trials/audio_stim_comp12.mp3,60fc2220e5b6f3a077f0d742,18,Female,Right handed,2021-07-26_20h58.50.760,MA Experiment 2,2021.1.2,MacIntel,58.82352941,3,6,108,20,1,,,,,
1.541,response_2,,SHOULDER,INSTRUMENT,,,,,,HOBBY,COLONY,long,resources/sound/catchTrials/audio_control_comp_project04.mp3,60fc2220e5b6f3a077f0d742,18,Female,Right handed,2021-07-26_20h58.50.760,MA Experiment 2,2021.1.2,MacIntel,58.82352941,,,,,,0,18,18,18,1
1.459,response_2,longFoil,SINGER,ATHLETICS,,,,,,DRIZZLE,CARDINAL,long,resources/sound/trials/audio_stim_comp69.mp3,60fc2220e5b6f3a077f0d742,18,Female,Right handed,2021-07-26_20h58.50.760,MA Experiment 2,2021.1.2,MacIntel,58.82352941,3,7,109,17,1,,,,,
0.81,response_1,shortValid,MURDER,INSTRUCTOR,,,,,,SACRED,GALAXY,long,resources/sound/trials/audio_stim_comp1.mp3,60fc2220e5b6f3a077f0d742,18,Female,Right handed,2021-07-26_20h58.50.760,MA Experiment 2,2021.1.2,MacIntel,58.82352941,3,8,110,24,1,,,,,
1.343,response_1,shortFoil,BISHOP,MINISTER,,,,,,BRAINSTORM,GREEN NEEDLE,short,resources/sound/trials/audio_stim_original.mp3,60fc2220e5b6f3a077f0d742,18,Female,Right handed,2021-07-26_20h58.50.760,MA Experiment 2,2021.1.2,MacIntel,58.82352941,3,9,111,16,1,,,,,
1.325,response_2,longValid,INVOICE,GOVERNMENT,,,,,,RUBBER,PROPERTY,long,resources/sound/trials/audio_stim_human0.mp3,60fc2220e5b6f3a077f0d742,18,Female,Right handed,2021-07-26_20h58.50.760,MA Experiment 2,2021.1.2,MacIntel,58.82352941,3,10,112,29,1,,,,,
1.559,response_2,,UNCLE,RETAILER,,,,,,JOURNAL,ROBBERY,short,resources/sound/catchTrials/audio_control_human_project02.mp3,60fc2220e5b6f3a077f0d742,18,Female,Right handed,2021-07-26_20h58.50.760,MA Experiment 2,2021.1.2,MacIntel,58.82352941,,,,,,0,16,16,13,1
1.345,response_2,longFoil,BUTTER,SPECIALIST,,,,,,WORKER,VISITOR,short,resources/sound/trials/audio_stim_comp17.mp3,60fc2220e5b6f3a077f0d742,18,Female,Right handed,2021-07-26_20h58.50.760,MA Experiment 2,2021.1.2,MacIntel,58.82352941,3,11,113,6,1,,,,,
0.944,response_2,longValid,HARBOUR,ACROBAT,,,,,,RUBBER,PROPERTY,short,resources/sound/trials/audio_stim_human0.mp3,60fc2220e5b6f3a077f0d742,18,Female,Right handed,2021-07-26_20h58.50.760,MA Experiment 2,2021.1.2,MacIntel,58.82352941,3,12,114,12,1,,,,,
1.426,response_2,longFoil,MURAL,PHYSICIAN,,,,,,MINER,EMERALD,short,resources/sound/trials/audio_stim_human6.mp3,60fc2220e5b6f3a077f0d742,18,Female,Right handed,2021-07-26_20h58.50.760,MA Experiment 2,2021.1.2,MacIntel,58.82352941,3,13,115,13,1,,,,,
0.959,response_2,longValid,BERRY,CINNAMON,,,,,,CONCRETE,ENEMY,short,resources/sound/trials/audio_stim_human67.mp3,60fc2220e5b6f3a077f0d742,18,Female,Right handed,2021-07-26_20h58.50.760,MA Experiment 2,2021.1.2,MacIntel,58.82352941,3,14,116,10,1,,,,,
0.46,response_1,,EARTHWORM,OPENING,,,,,,VIOLET,LUBRICANT,short,resources/sound/catchTrials/audio_control_comp_project07.mp3,60fc2220e5b6f3a077f0d742,18,Female,Right handed,2021-07-26_20h58.50.760,MA Experiment 2,2021.1.2,MacIntel,58.82352941,,,,,,0,1,1,3,1
1.128,response_2,longFoil,PERSON,SAXOPHONE,,,,,,HARDWARE,OVERCOAT,short,resources/sound/trials/audio_stim_human35.mp3,60fc2220e5b6f3a077f0d742,18,Female,Right handed,2021-07-26_20h58.50.760,MA Experiment 2,2021.1.2,MacIntel,58.82352941,3,15,117,8,1,,,,,
1.559,response_2,shortFoil,CIGAR,MICROSCOPE,,,,,,MARBLE,CUSTOMER,long,resources/sound/trials/audio_stim_comp65.mp3,60fc2220e5b6f3a077f0d742,18,Female,Right handed,2021-07-26_20h58.50.760,MA Experiment 2,2021.1.2,MacIntel,58.82352941,3,16,118,21,1,,,,,
1.193,response_1,shortValid,STOCKING,GALLERY,,,,,,PAINTER,VEHICLE,short,resources/sound/trials/audio_stim_human47.mp3,60fc2220e5b6f3a077f0d742,18,Female,Right handed,2021-07-26_20h58.50.760,MA Experiment 2,2021.1.2,MacIntel,58.82352941,3,17,119,11,1,,,,,
0.912,response_1,shortValid,MUSCLE,FISHERMAN,,,,,,ATHLETE,IVORY,short,resources/sound/trials/audio_stim_comp57.mp3,60fc2220e5b6f3a077f0d742,18,Female,Right handed,2021-07-26_20h58.50.760,MA Experiment 2,2021.1.2,MacIntel,58.82352941,3,18,120,5,1,,,,,
1.209,response_2,,HAMMER,CONVENTION,,,,,,HOBBY,COLONY,short,resources/sound/catchTrials/audio_control_comp_project04.mp3,60fc2220e5b6f3a077f0d742,18,Female,Right handed,2021-07-26_20h58.50.760,MA Experiment 2,2021.1.2,MacIntel,58.82352941,,,,,,0,24,24,2,1
1.261,response_2,longValid,CURFEW,PROJECTOR,,,,,,ROBBER,RATTLESNAKE,short,resources/sound/trials/audio_stim_human64.mp3,60fc2220e5b6f3a077f0d742,18,Female,Right handed,2021-07-26_20h58.50.760,MA Experiment 2,2021.1.2,MacIntel,58.82352941,3,19,121,15,1,,,,,
1.509,response_2,shortFoil,LEADER,GINGERBREAD,,,,,,PARTY,SANCTUARY,long,resources/sound/trials/audio_stim_human50.mp3,60fc2220e5b6f3a077f0d742,18,Female,Right handed,2021-07-26_20h58.50.760,MA Experiment 2,2021.1.2,MacIntel,58.82352941,3,20,122,31,1,,,,,
1.392,response_1,shortValid,FAIRY,ATTENDANT,,,,,,RECEIPT,LIMOUSINE,short,resources/sound/trials/audio_stim_comp40.mp3,60fc2220e5b6f3a077f0d742,18,Female,Right handed,2021-07-26_20h58.50.760,MA Experiment 2,2021.1.2,MacIntel,58.82352941,3,21,123,2,1,,,,,
1.009,response_2,shortFoil,VESSEL,CABINET,,,,,,PARTY,SANCTUARY,short,resources/sound/trials/audio_stim_human50.mp3,60fc2220e5b6f3a077f0d742,18,Female,Right handed,2021-07-26_20h58.50.760,MA Experiment 2,2021.1.2,MacIntel,58.82352941,3,22,124,14,1,,,,,
1.193,response_2,,PIPING,HOSPITAL,,,,,,BORDER,ALGEBRA,short,resources/sound/catchTrials/audio_control_comp_project00.mp3,60fc2220e5b6f3a077f0d742,18,Female,Right handed,2021-07-26_20h58.50.760,MA Experiment 2,2021.1.2,MacIntel,58.82352941,,,,,,0,2,2,0,1
1.343,response_1,longFoil,DOORWAY,INDUSTRY,,,,,,PAINTER,VEHICLE,long,resources/sound/trials/audio_stim_human47.mp3,60fc2220e5b6f3a077f0d742,18,Female,Right handed,2021-07-26_20h58.50.760,MA Experiment 2,2021.1.2,MacIntel,58.82352941,3,23,125,28,1,,,,,
1.561,response_2,longValid,DECOY,BEVERAGE,,,,,,WORKER,VISITOR,long,resources/sound/trials/audio_stim_comp17.mp3,60fc2220e5b6f3a077f0d742,18,Female,Right handed,2021-07-26_20h58.50.760,MA Experiment 2,2021.1.2,MacIntel,58.82352941,3,24,126,23,1,,,,,
1.26,response_2,shortValid,TRAITOR,HONEYMOON,,,,,,HARDWARE,OVERCOAT,long,resources/sound/trials/audio_stim_human35.mp3,60fc2220e5b6f3a077f0d742,18,Female,Right handed,2021-07-26_20h58.50.760,MA Experiment 2,2021.1.2,MacIntel,58.82352941,3,25,127,25,1,,,,,
1.548,response_2,longFoil,SOFA,UMBRELLA,,,,,,ROBBER,RATTLESNAKE,long,resources/sound/trials/audio_stim_human64.mp3,60fc2220e5b6f3a077f0d742,18,Female,Right handed,2021-07-26_20h58.50.760,MA Experiment 2,2021.1.2,MacIntel,58.82352941,3,26,128,32,1,,,,,
1.108,response_1,,FOREARM,GYMNASTICS,,,,,,VIOLET,LUBRICANT,short,resources/sound/catchTrials/audio_control_human_project07.mp3,60fc2220e5b6f3a077f0d742,18,Female,Right handed,2021-07-26_20h58.50.760,MA Experiment 2,2021.1.2,MacIntel,58.82352941,,,,,,0,6,6,12,1
1.075,response_1,longFoil,KERNEL,ORNAMENT,,,,,,DAYLIGHT,MATERIAL,short,resources/sound/trials/audio_stim_human42.mp3,60fc2220e5b6f3a077f0d742,18,Female,Right handed,2021-07-26_20h58.50.760,MA Experiment 2,2021.1.2,MacIntel,58.82352941,3,27,129,9,1,,,,,
1.36,response_2,shortFoil,MORNING,POLICEMAN,,,,,,MARBLE,CUSTOMER,short,resources/sound/trials/audio_stim_comp65.mp3,60fc2220e5b6f3a077f0d742,18,Female,Right handed,2021-07-26_20h58.50.760,MA Experiment 2,2021.1.2,MacIntel,58.82352941,3,28,130,4,1,,,,,
1.494,response_2,shortValid,WINDOW,PROPELLER,,,,,,WHISTLE,TREASURER,short,resources/sound/trials/audio_stim_comp12.mp3,60fc2220e5b6f3a077f0d742,18,Female,Right handed,2021-07-26_20h58.50.760,MA Experiment 2,2021.1.2,MacIntel,58.82352941,3,29,131,3,1,,,,,
1.109,response_2,longValid,DWELLER,FIREWOOD,,,,,,BRAINSTORM,GREEN NEEDLE,long,resources/sound/trials/audio_stim_original.mp3,60fc2220e5b6f3a077f0d742,18,Female,Right handed,2021-07-26_20h58.50.760,MA Experiment 2,2021.1.2,MacIntel,58.82352941,3,30,132,33,1,,,,,
1.043,response_2,,RUSTY,REFEREE,,,,,,NAVY,RECTANGLE,long,resources/sound/catchTrials/audio_control_human_project06.mp3,60fc2220e5b6f3a077f0d742,18,Female,Right handed,2021-07-26_20h58.50.760,MA Experiment 2,2021.1.2,MacIntel,58.82352941,,,,,,0,17,17,30,1
1.158,response_1,longValid,LIGHTNING,INJURY,,,,,,DRIZZLE,CARDINAL,short,resources/sound/trials/audio_stim_comp69.mp3,60fc2220e5b6f3a077f0d742,18,Female,Right handed,2021-07-26_20h58.50.760,MA Experiment 2,2021.1.2,MacIntel,58.82352941,3,31,133,0,1,,,,,
1.457,response_2,shortValid,INCOME,HURRICANE,,,,,,MINER,EMERALD,long,resources/sound/trials/audio_stim_human6.mp3,60fc2220e5b6f3a077f0d742,18,Female,Right handed,2021-07-26_20h58.50.760,MA Experiment 2,2021.1.2,MacIntel,58.82352941,3,32,134,30,1,,,,,
1.396,response_2,longValid,NECKLACE,HEROIN,,,,,,CONCRETE,ENEMY,long,resources/sound/trials/audio_stim_human67.mp3,60fc2220e5b6f3a077f0d742,18,Female,Right handed,2021-07-26_20h58.50.760,MA Experiment 2,2021.1.2,MacIntel,58.82352941,3,33,135,27,1,,,,,
