response.time,response,cueTarget,rand_foil_1,rand_foil_2,prac_trials.thisRepN,prac_trials.thisTrialN,prac_trials.thisN,prac_trials.thisIndex,prac_trials.ran,word_1,word_2,cue,file_path,participant,age,gender,handedness,date,expName,psychopyVersion,OS,frameRate,trials.thisRepN,trials.thisTrialN,trials.thisN,trials.thisIndex,trials.ran,catchTrials.thisRepN,catchTrials.thisTrialN,catchTrials.thisN,catchTrials.thisIndex,catchTrials.ran
2.0967,response_2,shortFoil,GRADUATE,CATHEDRAL,0,0,0,6,1,VACANT,SALVATION,long,resources/sound/prac_trials/practice_cue6.mp3,60fc195aaf93a05610b19f4c,28,Female,Right handed,2021-07-26_20h30.41.401,MA Experiment 2,2021.1.2,Win32,59.07372401,,,,,,,,,,
2.2135,response_2,longValid,VAPOUR,INJURY,0,1,1,4,1,FIZZY,ELECTRIC,short,resources/sound/prac_trials/practice_cue4.mp3,60fc195aaf93a05610b19f4c,28,Female,Right handed,2021-07-26_20h30.41.401,MA Experiment 2,2021.1.2,Win32,59.07372401,,,,,,,,,,
3.4805,response_2,longFoil,SODA,EMULSION,0,2,2,1,1,CABLE,REPUBLIC,short,resources/sound/prac_trials/practice_cue_human1.mp3,60fc195aaf93a05610b19f4c,28,Female,Right handed,2021-07-26_20h30.41.401,MA Experiment 2,2021.1.2,Win32,59.07372401,,,,,,,,,,
,,longFoil,SCOOTER,ENAMEL,0,3,3,11,1,KETCHUP,GONDOLA,long,resources/sound/prac_trials/practice_cue_human11.mp3,60fc195aaf93a05610b19f4c,28,Female,Right handed,2021-07-26_20h30.41.401,MA Experiment 2,2021.1.2,Win32,59.07372401,,,,,,,,,,
2.1487,response_2,shortValid,WINDOW,DESTROYER,0,4,4,0,1,AARDVARK,FALLACY,short,resources/sound/prac_trials/practice_cue0.mp3,60fc195aaf93a05610b19f4c,28,Female,Right handed,2021-07-26_20h30.41.401,MA Experiment 2,2021.1.2,Win32,59.07372401,,,,,,,,,,
2.0462,response_2,longFoil,MORNING,INDUSTRY,0,5,5,9,1,GRUMPY,LABYRINTH,long,resources/sound/prac_trials/practice_cue_human9.mp3,60fc195aaf93a05610b19f4c,28,Female,Right handed,2021-07-26_20h30.41.401,MA Experiment 2,2021.1.2,Win32,59.07372401,,,,,,,,,,
1.8625,response_2,longValid,TORTURE,VINEGAR,0,6,6,5,1,NONSENSE,OASIS,short,resources/sound/prac_trials/practice_cue_human5.mp3,60fc195aaf93a05610b19f4c,28,Female,Right handed,2021-07-26_20h30.41.401,MA Experiment 2,2021.1.2,Win32,59.07372401,,,,,,,,,,
2.2471,response_1,longValid,MEASLES,HOSPITAL,0,7,7,10,1,SAFFRON,JAVELIN,long,resources/sound/prac_trials/practice_cue10.mp3,60fc195aaf93a05610b19f4c,28,Female,Right handed,2021-07-26_20h30.41.401,MA Experiment 2,2021.1.2,Win32,59.07372401,,,,,,,,,,
1.5967,response_2,shortValid,SEGMENT,BUTTERFLY,0,8,8,2,1,RECENT,TOBACCO,short,resources/sound/prac_trials/practice_cue2.mp3,60fc195aaf93a05610b19f4c,28,Female,Right handed,2021-07-26_20h30.41.401,MA Experiment 2,2021.1.2,Win32,59.07372401,,,,,,,,,,
2.9979,response_2,longValid,NURSERY,MERCURY,0,9,9,3,1,EAGER,QUALIFY,short,resources/sound/prac_trials/practice_cue_human3.mp3,60fc195aaf93a05610b19f4c,28,Female,Right handed,2021-07-26_20h30.41.401,MA Experiment 2,2021.1.2,Win32,59.07372401,,,,,,,,,,
1.8307,response_2,shortValid,CIGAR,ICICLE,0,10,10,7,1,BUCKLE,WALLABY,long,resources/sound/prac_trials/practice_cue_human7.mp3,60fc195aaf93a05610b19f4c,28,Female,Right handed,2021-07-26_20h30.41.401,MA Experiment 2,2021.1.2,Win32,59.07372401,,,,,,,,,,
2.8478,response_1,shortValid,SOFA,ATHLETICS,0,11,11,8,1,DAGGER,EMPHASIS,long,resources/sound/prac_trials/practice_cue8.mp3,60fc195aaf93a05610b19f4c,28,Female,Right handed,2021-07-26_20h30.41.401,MA Experiment 2,2021.1.2,Win32,59.07372401,,,,,,,,,,
2.2308,response_1,longFoil,KENNEL,GINGERBREAD,,,,,,MINER,EMERALD,short,resources/sound/trials/audio_stim_comp6.mp3,60fc195aaf93a05610b19f4c,28,Female,Right handed,2021-07-26_20h30.41.401,MA Experiment 2,2021.1.2,Win32,59.07372401,0,0,0,1,1,,,,,
2.1834,response_2,shortValid,FERTILE,MINERAL,,,,,,DAYLIGHT,MATERIAL,short,resources/sound/trials/audio_stim_human42.mp3,60fc195aaf93a05610b19f4c,28,Female,Right handed,2021-07-26_20h30.41.401,MA Experiment 2,2021.1.2,Win32,59.07372401,0,1,1,9,1,,,,,
2.5304,response_2,shortValid,GIRDLE,SETTLEMENT,,,,,,BRAINSTORM,GREEN NEEDLE,short,resources/sound/trials/audio_stim_original.mp3,60fc195aaf93a05610b19f4c,28,Female,Right handed,2021-07-26_20h30.41.401,MA Experiment 2,2021.1.2,Win32,59.07372401,0,2,2,16,1,,,,,
1.3972,response_2,,DANCER,MESSENGER,,,,,,NAVY,RECTANGLE,short,resources/sound/catchTrials/audio_control_comp_project06.mp3,60fc195aaf93a05610b19f4c,28,Female,Right handed,2021-07-26_20h30.41.401,MA Experiment 2,2021.1.2,Win32,59.07372401,,,,,,0,23,23,6,1
2.1974,response_1,longValid,NECKLACE,SAXOPHONE,,,,,,MARBLE,CUSTOMER,short,resources/sound/trials/audio_stim_comp65.mp3,60fc195aaf93a05610b19f4c,28,Female,Right handed,2021-07-26_20h30.41.401,MA Experiment 2,2021.1.2,Win32,59.07372401,0,3,3,4,1,,,,,
1.0294,response_2,shortFoil,WALRUS,NEIGHBOURHOOD,,,,,,ATHLETE,IVORY,long,resources/sound/trials/audio_stim_comp57.mp3,60fc195aaf93a05610b19f4c,28,Female,Right handed,2021-07-26_20h30.41.401,MA Experiment 2,2021.1.2,Win32,59.07372401,0,4,4,22,1,,,,,
1.8778,response_2,shortFoil,CURFEW,AMMONIA,,,,,,MINER,EMERALD,long,resources/sound/trials/audio_stim_human6.mp3,60fc195aaf93a05610b19f4c,28,Female,Right handed,2021-07-26_20h30.41.401,MA Experiment 2,2021.1.2,Win32,59.07372401,0,5,5,30,1,,,,,
2.2642,response_2,longValid,PATIENT,HEROIN,,,,,,BRAINSTORM,GREEN NEEDLE,long,resources/sound/trials/audio_stim_original.mp3,60fc195aaf93a05610b19f4c,28,Female,Right handed,2021-07-26_20h30.41.401,MA Experiment 2,2021.1.2,Win32,59.07372401,0,6,6,33,1,,,,,
1.6451,response_2,,MISTRESS,HURRICANE,,,,,,ICY,JITTERBUG,long,resources/sound/catchTrials/audio_control_comp_project08.mp3,60fc195aaf93a05610b19f4c,28,Female,Right handed,2021-07-26_20h30.41.401,MA Experiment 2,2021.1.2,Win32,59.07372401,,,,,,0,24,24,23,1
1.7995,response_2,shortFoil,SHEEPSKIN,POLICEMAN,,,,,,MINER,EMERALD,short,resources/sound/trials/audio_stim_human6.mp3,60fc195aaf93a05610b19f4c,28,Female,Right handed,2021-07-26_20h30.41.401,MA Experiment 2,2021.1.2,Win32,59.07372401,0,7,7,13,1,,,,,
2.9806,response_2,longFoil,PERSON,MOSQUITO,,,,,,PARTY,SANCTUARY,long,resources/sound/trials/audio_stim_human50.mp3,60fc195aaf93a05610b19f4c,28,Female,Right handed,2021-07-26_20h30.41.401,MA Experiment 2,2021.1.2,Win32,59.07372401,0,8,8,31,1,,,,,
3.3676,response_2,longValid,DOORWAY,CAPITAL,,,,,,PAINTER,VEHICLE,long,resources/sound/trials/audio_stim_human47.mp3,60fc195aaf93a05610b19f4c,28,Female,Right handed,2021-07-26_20h30.41.401,MA Experiment 2,2021.1.2,Win32,59.07372401,0,9,9,28,1,,,,,
1.4989,response_1,longFoil,UNCLE,CORRIDOR,,,,,,PAINTER,VEHICLE,short,resources/sound/trials/audio_stim_human47.mp3,60fc195aaf93a05610b19f4c,28,Female,Right handed,2021-07-26_20h30.41.401,MA Experiment 2,2021.1.2,Win32,59.07372401,0,10,10,11,1,,,,,
2.3626,response_1,,FATHER,FISHERMAN,,,,,,VIOLET,LUBRICANT,short,resources/sound/catchTrials/audio_control_comp_project07.mp3,60fc195aaf93a05610b19f4c,28,Female,Right handed,2021-07-26_20h30.41.401,MA Experiment 2,2021.1.2,Win32,59.07372401,,,,,,0,5,5,3,1
1.7143,response_2,shortFoil,NAPKIN,UMBRELLA,,,,,,RECEIPT,LIMOUSINE,long,resources/sound/trials/audio_stim_comp40.mp3,60fc195aaf93a05610b19f4c,28,Female,Right handed,2021-07-26_20h30.41.401,MA Experiment 2,2021.1.2,Win32,59.07372401,0,11,11,19,1,,,,,
1.4991,response_1,shortFoil,MOONLIGHT,HEADQUARTERS,,,,,,DAYLIGHT,MATERIAL,long,resources/sound/trials/audio_stim_human42.mp3,60fc195aaf93a05610b19f4c,28,Female,Right handed,2021-07-26_20h30.41.401,MA Experiment 2,2021.1.2,Win32,59.07372401,0,12,12,26,1,,,,,
2.0625,response_1,longValid,CAPTAIN,AMBULANCE,,,,,,CONCRETE,ENEMY,long,resources/sound/trials/audio_stim_human67.mp3,60fc195aaf93a05610b19f4c,28,Female,Right handed,2021-07-26_20h30.41.401,MA Experiment 2,2021.1.2,Win32,59.07372401,0,13,13,27,1,,,,,
1.7629,response_2,longFoil,INVOICE,NEWSPAPER,,,,,,DRIZZLE,CARDINAL,long,resources/sound/trials/audio_stim_comp69.mp3,60fc195aaf93a05610b19f4c,28,Female,Right handed,2021-07-26_20h30.41.401,MA Experiment 2,2021.1.2,Win32,59.07372401,0,14,14,17,1,,,,,
1.4504,response_2,,MURDER,AVENUE,,,,,,NAVY,RECTANGLE,long,resources/sound/catchTrials/audio_control_human_project06.mp3,60fc195aaf93a05610b19f4c,28,Female,Right handed,2021-07-26_20h30.41.401,MA Experiment 2,2021.1.2,Win32,59.07372401,,,,,,0,19,19,30,1
1.2491,response_2,shortFoil,VILLAGE,PROJECTOR,,,,,,RUBBER,PROPERTY,long,resources/sound/trials/audio_stim_human0.mp3,60fc195aaf93a05610b19f4c,28,Female,Right handed,2021-07-26_20h30.41.401,MA Experiment 2,2021.1.2,Win32,59.07372401,0,15,15,29,1,,,,,
2.48,response_2,longValid,TRAITOR,HANDKERCHIEF,,,,,,ROBBER,RATTLESNAKE,short,resources/sound/trials/audio_stim_human64.mp3,60fc195aaf93a05610b19f4c,28,Female,Right handed,2021-07-26_20h30.41.401,MA Experiment 2,2021.1.2,Win32,59.07372401,0,16,16,15,1,,,,,
1.6135,response_2,shortValid,STOCKING,INSTITUTE,,,,,,RECEIPT,LIMOUSINE,short,resources/sound/trials/audio_stim_comp40.mp3,60fc195aaf93a05610b19f4c,28,Female,Right handed,2021-07-26_20h30.41.401,MA Experiment 2,2021.1.2,Win32,59.07372401,0,17,17,2,1,,,,,
1.8138,response_2,shortFoil,ANCHOR,SPECIALIST,,,,,,CONCRETE,ENEMY,short,resources/sound/trials/audio_stim_human67.mp3,60fc195aaf93a05610b19f4c,28,Female,Right handed,2021-07-26_20h30.41.401,MA Experiment 2,2021.1.2,Win32,59.07372401,0,18,18,10,1,,,,,
1.4969,response_2,,VALLEY,GRASSHOPPER,,,,,,BORDER,ALGEBRA,short,resources/sound/catchTrials/audio_control_comp_project00.mp3,60fc195aaf93a05610b19f4c,28,Female,Right handed,2021-07-26_20h30.41.401,MA Experiment 2,2021.1.2,Win32,59.07372401,,,,,,0,2,2,0,1
1.4626,response_1,shortFoil,MURAL,FAMILY,,,,,,SACRED,GALAXY,short,resources/sound/trials/audio_stim_comp1.mp3,60fc195aaf93a05610b19f4c,28,Female,Right handed,2021-07-26_20h30.41.401,MA Experiment 2,2021.1.2,Win32,59.07372401,0,19,19,7,1,,,,,
2.1993,response_2,shortFoil,DECOY,ORNAMENT,,,,,,ROBBER,RATTLESNAKE,long,resources/sound/trials/audio_stim_human64.mp3,60fc195aaf93a05610b19f4c,28,Female,Right handed,2021-07-26_20h30.41.401,MA Experiment 2,2021.1.2,Win32,59.07372401,0,20,20,32,1,,,,,
1.4796,response_1,longFoil,LIGHTNING,MICROSCOPE,,,,,,HARDWARE,OVERCOAT,short,resources/sound/trials/audio_stim_human35.mp3,60fc195aaf93a05610b19f4c,28,Female,Right handed,2021-07-26_20h30.41.401,MA Experiment 2,2021.1.2,Win32,59.07372401,0,21,21,8,1,,,,,
1.2288,response_2,shortFoil,PICTURE,CINNAMON,,,,,,RUBBER,PROPERTY,short,resources/sound/trials/audio_stim_human0.mp3,60fc195aaf93a05610b19f4c,28,Female,Right handed,2021-07-26_20h30.41.401,MA Experiment 2,2021.1.2,Win32,59.07372401,0,22,22,12,1,,,,,
1.4782,response_2,,MEDICINE,INSTRUCTOR,,,,,,CORNER,ENGINEER,short,resources/sound/catchTrials/audio_control_comp_project14.mp3,60fc195aaf93a05610b19f4c,28,Female,Right handed,2021-07-26_20h30.41.401,MA Experiment 2,2021.1.2,Win32,59.07372401,,,,,,0,20,20,1,1
2.297,response_1,longValid,WAFER,PROPELLER,,,,,,MARBLE,CUSTOMER,long,resources/sound/trials/audio_stim_comp65.mp3,60fc195aaf93a05610b19f4c,28,Female,Right handed,2021-07-26_20h30.41.401,MA Experiment 2,2021.1.2,Win32,59.07372401,0,23,23,21,1,,,,,
1.562,response_1,shortValid,CEREAL,ALPHABET,,,,,,WORKER,VISITOR,long,resources/sound/trials/audio_stim_comp17.mp3,60fc195aaf93a05610b19f4c,28,Female,Right handed,2021-07-26_20h30.41.401,MA Experiment 2,2021.1.2,Win32,59.07372401,0,24,24,23,1,,,,,
1.7289,response_1,longValid,PODIUM,GOVERNMENT,,,,,,PARTY,SANCTUARY,short,resources/sound/trials/audio_stim_human50.mp3,60fc195aaf93a05610b19f4c,28,Female,Right handed,2021-07-26_20h30.41.401,MA Experiment 2,2021.1.2,Win32,59.07372401,0,25,25,14,1,,,,,
2.7624,response_1,longFoil,CHIPMUNK,CROCODILE,,,,,,WHISTLE,TREASURER,long,resources/sound/trials/audio_stim_comp12.mp3,60fc195aaf93a05610b19f4c,28,Female,Right handed,2021-07-26_20h30.41.401,MA Experiment 2,2021.1.2,Win32,59.07372401,0,26,26,20,1,,,,,
0.8473,response_2,,FEVER,FIREWOOD,,,,,,NAVY,RECTANGLE,short,resources/sound/catchTrials/audio_control_human_project06.mp3,60fc195aaf93a05610b19f4c,28,Female,Right handed,2021-07-26_20h30.41.401,MA Experiment 2,2021.1.2,Win32,59.07372401,,,,,,0,8,8,14,1
1.8292,response_2,shortFoil,RABBI,CAMERA,,,,,,DRIZZLE,CARDINAL,short,resources/sound/trials/audio_stim_comp69.mp3,60fc195aaf93a05610b19f4c,28,Female,Right handed,2021-07-26_20h30.41.401,MA Experiment 2,2021.1.2,Win32,59.07372401,0,27,27,0,1,,,,,
0.9295,response_1,longFoil,LOBSTER,POLIO,,,,,,MINER,EMERALD,long,resources/sound/trials/audio_stim_comp6.mp3,60fc195aaf93a05610b19f4c,28,Female,Right handed,2021-07-26_20h30.41.401,MA Experiment 2,2021.1.2,Win32,59.07372401,0,28,28,18,1,,,,,
2.1005,response_1,shortFoil,PRINCESS,GALLERY,,,,,,SACRED,GALAXY,long,resources/sound/trials/audio_stim_comp1.mp3,60fc195aaf93a05610b19f4c,28,Female,Right handed,2021-07-26_20h30.41.401,MA Experiment 2,2021.1.2,Win32,59.07372401,0,29,29,24,1,,,,,
0.995,response_2,longFoil,KERNEL,TEMPERATURE,,,,,,ATHLETE,IVORY,short,resources/sound/trials/audio_stim_comp57.mp3,60fc195aaf93a05610b19f4c,28,Female,Right handed,2021-07-26_20h30.41.401,MA Experiment 2,2021.1.2,Win32,59.07372401,0,30,30,5,1,,,,,
1.313,response_2,,ACRE,PHOTOGRAPH,,,,,,JOURNAL,ROBBERY,long,resources/sound/catchTrials/audio_control_human_project02.mp3,60fc195aaf93a05610b19f4c,28,Female,Right handed,2021-07-26_20h30.41.401,MA Experiment 2,2021.1.2,Win32,59.07372401,,,,,,0,4,4,29,1
1.6457,response_1,longValid,LEADER,GYMNASTICS,,,,,,HARDWARE,OVERCOAT,long,resources/sound/trials/audio_stim_human35.mp3,60fc195aaf93a05610b19f4c,28,Female,Right handed,2021-07-26_20h30.41.401,MA Experiment 2,2021.1.2,Win32,59.07372401,0,31,31,25,1,,,,,
1.78,response_1,shortValid,BISHOP,APPLIANCE,,,,,,WORKER,VISITOR,short,resources/sound/trials/audio_stim_comp17.mp3,60fc195aaf93a05610b19f4c,28,Female,Right handed,2021-07-26_20h30.41.401,MA Experiment 2,2021.1.2,Win32,59.07372401,0,32,32,6,1,,,,,
2.4803,response_2,shortValid,NATIVE,COMMITTEE,,,,,,WHISTLE,TREASURER,short,resources/sound/trials/audio_stim_comp12.mp3,60fc195aaf93a05610b19f4c,28,Female,Right handed,2021-07-26_20h30.41.401,MA Experiment 2,2021.1.2,Win32,59.07372401,0,33,33,3,1,,,,,
1.513,response_2,shortValid,CRYSTAL,ATTENDANT,,,,,,RECEIPT,LIMOUSINE,long,resources/sound/trials/audio_stim_comp40.mp3,60fc195aaf93a05610b19f4c,28,Female,Right handed,2021-07-26_20h30.41.401,MA Experiment 2,2021.1.2,Win32,59.07372401,1,0,34,19,1,,,,,
1.8631,response_1,longValid,SINGER,HONEYMOON,,,,,,PAINTER,VEHICLE,short,resources/sound/trials/audio_stim_human47.mp3,60fc195aaf93a05610b19f4c,28,Female,Right handed,2021-07-26_20h30.41.401,MA Experiment 2,2021.1.2,Win32,59.07372401,1,1,35,11,1,,,,,
1.4292,response_1,longValid,NEIGHBOUR,GORILLA,,,,,,MINER,EMERALD,short,resources/sound/trials/audio_stim_comp6.mp3,60fc195aaf93a05610b19f4c,28,Female,Right handed,2021-07-26_20h30.41.401,MA Experiment 2,2021.1.2,Win32,59.07372401,1,2,36,1,1,,,,,
1.196,response_2,,EARTHWORM,CITIZEN,,,,,,IRIS,VIOLIN,short,resources/sound/catchTrials/audio_control_comp_project12.mp3,60fc195aaf93a05610b19f4c,28,Female,Right handed,2021-07-26_20h30.41.401,MA Experiment 2,2021.1.2,Win32,59.07372401,,,,,,0,0,0,4,1
1.6969,response_1,longValid,HARBOUR,REFEREE,,,,,,RUBBER,PROPERTY,long,resources/sound/trials/audio_stim_human0.mp3,60fc195aaf93a05610b19f4c,28,Female,Right handed,2021-07-26_20h30.41.401,MA Experiment 2,2021.1.2,Win32,59.07372401,1,3,37,29,1,,,,,
0.9594,response_2,shortValid,SADDLE,OXYGEN,,,,,,SACRED,GALAXY,short,resources/sound/trials/audio_stim_comp1.mp3,60fc195aaf93a05610b19f4c,28,Female,Right handed,2021-07-26_20h30.41.401,MA Experiment 2,2021.1.2,Win32,59.07372401,1,4,38,7,1,,,,,
1.6457,response_1,shortFoil,PIPING,DIAMOND,,,,,,CONCRETE,ENEMY,long,resources/sound/trials/audio_stim_human67.mp3,60fc195aaf93a05610b19f4c,28,Female,Right handed,2021-07-26_20h30.41.401,MA Experiment 2,2021.1.2,Win32,59.07372401,1,5,39,27,1,,,,,
2.3129,response_2,shortValid,JURY,INFECTION,,,,,,PAINTER,VEHICLE,long,resources/sound/trials/audio_stim_human47.mp3,60fc195aaf93a05610b19f4c,28,Female,Right handed,2021-07-26_20h30.41.401,MA Experiment 2,2021.1.2,Win32,59.07372401,1,6,40,28,1,,,,,
1.6637,response_2,,SHOULDER,ACROBAT,,,,,,JOURNAL,ROBBERY,short,resources/sound/catchTrials/audio_control_human_project02.mp3,60fc195aaf93a05610b19f4c,28,Female,Right handed,2021-07-26_20h30.41.401,MA Experiment 2,2021.1.2,Win32,59.07372401,,,,,,0,29,29,13,1
2.2801,,shortValid,TWEEZER,LECTURER,,,,,,MARBLE,CUSTOMER,short,resources/sound/trials/audio_stim_comp65.mp3,60fc195aaf93a05610b19f4c,28,Female,Right handed,2021-07-26_20h30.41.401,MA Experiment 2,2021.1.2,Win32,59.07372401,1,7,41,4,1,,,,,
1.0648,response_1,shortFoil,WRITING,PROFESSOR,,,,,,WHISTLE,TREASURER,short,resources/sound/trials/audio_stim_comp12.mp3,60fc195aaf93a05610b19f4c,28,Female,Right handed,2021-07-26_20h30.41.401,MA Experiment 2,2021.1.2,Win32,59.07372401,1,8,42,3,1,,,,,
0.7824,response_1,longValid,DUEL,ANTIQUE,,,,,,DRIZZLE,CARDINAL,short,resources/sound/trials/audio_stim_comp69.mp3,60fc195aaf93a05610b19f4c,28,Female,Right handed,2021-07-26_20h30.41.401,MA Experiment 2,2021.1.2,Win32,59.07372401,1,9,43,0,1,,,,,
1.4471,response_2,shortFoil,FAIRY,CONVENTION,,,,,,HARDWARE,OVERCOAT,long,resources/sound/trials/audio_stim_human35.mp3,60fc195aaf93a05610b19f4c,28,Female,Right handed,2021-07-26_20h30.41.401,MA Experiment 2,2021.1.2,Win32,59.07372401,1,10,44,25,1,,,,,
1.4287,response_2,,DIAL,PHYSICIAN,,,,,,CORNER,ENGINEER,short,resources/sound/catchTrials/audio_control_human_project14.mp3,60fc195aaf93a05610b19f4c,28,Female,Right handed,2021-07-26_20h30.41.401,MA Experiment 2,2021.1.2,Win32,59.07372401,,,,,,0,10,10,10,1
0.8123,response_2,shortValid,DWELLER,BEVERAGE,,,,,,RUBBER,PROPERTY,short,resources/sound/trials/audio_stim_human0.mp3,60fc195aaf93a05610b19f4c,28,Female,Right handed,2021-07-26_20h30.41.401,MA Experiment 2,2021.1.2,Win32,59.07372401,1,11,45,12,1,,,,,
2.0197,response_2,shortFoil,LIQUID,STRAWBERRY,,,,,,MARBLE,CUSTOMER,long,resources/sound/trials/audio_stim_comp65.mp3,60fc195aaf93a05610b19f4c,28,Female,Right handed,2021-07-26_20h30.41.401,MA Experiment 2,2021.1.2,Win32,59.07372401,1,12,46,21,1,,,,,
0.5803,response_2,shortValid,PIANO,FACTORY,,,,,,ATHLETE,IVORY,short,resources/sound/trials/audio_stim_comp57.mp3,60fc195aaf93a05610b19f4c,28,Female,Right handed,2021-07-26_20h30.41.401,MA Experiment 2,2021.1.2,Win32,59.07372401,1,13,47,5,1,,,,,
1.6458,response_2,longFoil,MUSCLE,LEMONADE,,,,,,BRAINSTORM,GREEN NEEDLE,long,resources/sound/trials/audio_stim_original.mp3,60fc195aaf93a05610b19f4c,28,Female,Right handed,2021-07-26_20h30.41.401,MA Experiment 2,2021.1.2,Win32,59.07372401,1,14,48,33,1,,,,,
1.1635,response_1,,RUSTY,MINISTER,,,,,,JUGGLER,DANDELION,short,resources/sound/catchTrials/audio_control_human_project09.mp3,60fc195aaf93a05610b19f4c,28,Female,Right handed,2021-07-26_20h30.41.401,MA Experiment 2,2021.1.2,Win32,59.07372401,,,,,,0,17,17,15,1
1.9759,response_2,longFoil,BEETLE,JANITOR,,,,,,CONCRETE,ENEMY,short,resources/sound/trials/audio_stim_human67.mp3,60fc195aaf93a05610b19f4c,28,Female,Right handed,2021-07-26_20h30.41.401,MA Experiment 2,2021.1.2,Win32,59.07372401,1,15,49,10,1,,,,,
1.6609,response_2,longFoil,EVENING,TANGERINE,,,,,,DAYLIGHT,MATERIAL,long,resources/sound/trials/audio_stim_human42.mp3,60fc195aaf93a05610b19f4c,28,Female,Right handed,2021-07-26_20h30.41.401,MA Experiment 2,2021.1.2,Win32,59.07372401,1,16,50,26,1,,,,,
2.5655,response_1,longFoil,POLO,ASBESTOS,,,,,,PARTY,SANCTUARY,short,resources/sound/trials/audio_stim_human50.mp3,60fc195aaf93a05610b19f4c,28,Female,Right handed,2021-07-26_20h30.41.401,MA Experiment 2,2021.1.2,Win32,59.07372401,1,17,51,14,1,,,,,
1.1955,response_1,longFoil,FOREARM,MECHANIC,,,,,,DAYLIGHT,MATERIAL,short,resources/sound/trials/audio_stim_human42.mp3,60fc195aaf93a05610b19f4c,28,Female,Right handed,2021-07-26_20h30.41.401,MA Experiment 2,2021.1.2,Win32,59.07372401,1,18,52,9,1,,,,,
1.7455,response_1,,INCOME,MOLECULE,,,,,,POISON,REVOLVER,long,resources/sound/catchTrials/audio_control_human_project01.mp3,60fc195aaf93a05610b19f4c,28,Female,Right handed,2021-07-26_20h30.41.401,MA Experiment 2,2021.1.2,Win32,59.07372401,,,,,,0,9,9,25,1
1.4467,response_2,longValid,OLIVE,ENVELOPE,,,,,,RECEIPT,LIMOUSINE,short,resources/sound/trials/audio_stim_comp40.mp3,60fc195aaf93a05610b19f4c,28,Female,Right handed,2021-07-26_20h30.41.401,MA Experiment 2,2021.1.2,Win32,59.07372401,1,19,53,2,1,,,,,
1.579,response_1,longValid,NOVEL,CABINET,,,,,,SACRED,GALAXY,long,resources/sound/trials/audio_stim_comp1.mp3,60fc195aaf93a05610b19f4c,28,Female,Right handed,2021-07-26_20h30.41.401,MA Experiment 2,2021.1.2,Win32,59.07372401,1,20,54,24,1,,,,,
1.5294,response_2,longValid,DIVING,DISSECTION,,,,,,BRAINSTORM,GREEN NEEDLE,short,resources/sound/trials/audio_stim_original.mp3,60fc195aaf93a05610b19f4c,28,Female,Right handed,2021-07-26_20h30.41.401,MA Experiment 2,2021.1.2,Win32,59.07372401,1,21,55,16,1,,,,,
1.3137,response_1,shortFoil,TUMBLE,INTERVIEW,,,,,,PARTY,SANCTUARY,long,resources/sound/trials/audio_stim_human50.mp3,60fc195aaf93a05610b19f4c,28,Female,Right handed,2021-07-26_20h30.41.401,MA Experiment 2,2021.1.2,Win32,59.07372401,1,22,56,31,1,,,,,
1.9127,response_1,,VESSEL,ALCOHOL,,,,,,POISON,REVOLVER,short,resources/sound/catchTrials/audio_control_human_project01.mp3,60fc195aaf93a05610b19f4c,28,Female,Right handed,2021-07-26_20h30.41.401,MA Experiment 2,2021.1.2,Win32,59.07372401,,,,,,0,26,26,9,1
1.5586,response_1,longValid,SULPHUR,OPENING,,,,,,HARDWARE,OVERCOAT,short,resources/sound/trials/audio_stim_human35.mp3,60fc195aaf93a05610b19f4c,28,Female,Right handed,2021-07-26_20h30.41.401,MA Experiment 2,2021.1.2,Win32,59.07372401,1,23,57,8,1,,,,,
1.929,,shortValid,CANTEEN,POTATO,,,,,,ROBBER,RATTLESNAKE,short,resources/sound/trials/audio_stim_human64.mp3,60fc195aaf93a05610b19f4c,28,Female,Right handed,2021-07-26_20h30.41.401,MA Experiment 2,2021.1.2,Win32,59.07372401,1,24,58,15,1,,,,,
2.3125,response_1,shortValid,HURDLE,ABDOMEN,,,,,,MINER,EMERALD,long,resources/sound/trials/audio_stim_comp6.mp3,60fc195aaf93a05610b19f4c,28,Female,Right handed,2021-07-26_20h30.41.401,MA Experiment 2,2021.1.2,Win32,59.07372401,1,25,59,18,1,,,,,
1.9331,response_2,longFoil,BUTTER,MEDICINE,,,,,,WORKER,VISITOR,long,resources/sound/trials/audio_stim_comp17.mp3,60fc195aaf93a05610b19f4c,28,Female,Right handed,2021-07-26_20h30.41.401,MA Experiment 2,2021.1.2,Win32,59.07372401,1,26,60,23,1,,,,,
1.7497,response_2,,STATION,FURNITURE,,,,,,CORNER,ENGINEER,long,resources/sound/catchTrials/audio_control_comp_project14.mp3,60fc195aaf93a05610b19f4c,28,Female,Right handed,2021-07-26_20h30.41.401,MA Experiment 2,2021.1.2,Win32,59.07372401,,,,,,0,13,13,17,1
1.33,response_2,longValid,KETTLE,CIGARETTE,,,,,,MINER,EMERALD,long,resources/sound/trials/audio_stim_human6.mp3,60fc195aaf93a05610b19f4c,28,Female,Right handed,2021-07-26_20h30.41.401,MA Experiment 2,2021.1.2,Win32,59.07372401,1,27,61,30,1,,,,,
1.6808,response_1,shortValid,CABIN,MONUMENT,,,,,,MINER,EMERALD,short,resources/sound/trials/audio_stim_human6.mp3,60fc195aaf93a05610b19f4c,28,Female,Right handed,2021-07-26_20h30.41.401,MA Experiment 2,2021.1.2,Win32,59.07372401,1,28,62,13,1,,,,,
1.7132,response_2,longValid,HAMSTER,INSTRUMENT,,,,,,ROBBER,RATTLESNAKE,long,resources/sound/trials/audio_stim_human64.mp3,60fc195aaf93a05610b19f4c,28,Female,Right handed,2021-07-26_20h30.41.401,MA Experiment 2,2021.1.2,Win32,59.07372401,1,29,63,32,1,,,,,
1.2628,response_2,longValid,OFFICE,CLARINET,,,,,,WORKER,VISITOR,short,resources/sound/trials/audio_stim_comp17.mp3,60fc195aaf93a05610b19f4c,28,Female,Right handed,2021-07-26_20h30.41.401,MA Experiment 2,2021.1.2,Win32,59.07372401,1,30,64,6,1,,,,,
1.3144,response_1,,HAMMER,ADMIRAL,,,,,,VIOLET,LUBRICANT,long,resources/sound/catchTrials/audio_control_comp_project07.mp3,60fc195aaf93a05610b19f4c,28,Female,Right handed,2021-07-26_20h30.41.401,MA Experiment 2,2021.1.2,Win32,59.07372401,,,,,,0,18,18,19,1
1.1125,response_2,shortValid,BURNER,CARNATION,,,,,,DRIZZLE,CARDINAL,long,resources/sound/trials/audio_stim_comp69.mp3,60fc195aaf93a05610b19f4c,28,Female,Right handed,2021-07-26_20h30.41.401,MA Experiment 2,2021.1.2,Win32,59.07372401,1,31,65,17,1,,,,,
1.4957,response_1,longValid,TEMPLE,RETAILER,,,,,,ATHLETE,IVORY,long,resources/sound/trials/audio_stim_comp57.mp3,60fc195aaf93a05610b19f4c,28,Female,Right handed,2021-07-26_20h30.41.401,MA Experiment 2,2021.1.2,Win32,59.07372401,1,32,66,22,1,,,,,
1.4959,response_1,longValid,WIRE,CANDLELIGHT,,,,,,WHISTLE,TREASURER,long,resources/sound/trials/audio_stim_comp12.mp3,60fc195aaf93a05610b19f4c,28,Female,Right handed,2021-07-26_20h30.41.401,MA Experiment 2,2021.1.2,Win32,59.07372401,1,33,67,20,1,,,,,
0.9306,response_2,shortFoil,BERRY,CHOCOLATE,,,,,,BRAINSTORM,GREEN NEEDLE,long,resources/sound/trials/audio_stim_original.mp3,60fc195aaf93a05610b19f4c,28,Female,Right handed,2021-07-26_20h30.41.401,MA Experiment 2,2021.1.2,Win32,59.07372401,2,0,68,33,1,,,,,
1.8789,response_1,shortFoil,MEDICINE,INSTRUMENT,,,,,,DRIZZLE,CARDINAL,long,resources/sound/trials/audio_stim_comp69.mp3,60fc195aaf93a05610b19f4c,28,Female,Right handed,2021-07-26_20h30.41.401,MA Experiment 2,2021.1.2,Win32,59.07372401,2,1,69,17,1,,,,,
1.6794,response_2,longFoil,PIPING,PHOTOGRAPH,,,,,,SACRED,GALAXY,short,resources/sound/trials/audio_stim_comp1.mp3,60fc195aaf93a05610b19f4c,28,Female,Right handed,2021-07-26_20h30.41.401,MA Experiment 2,2021.1.2,Win32,59.07372401,2,2,70,7,1,,,,,
1.7652,response_2,,CEREAL,FIREWOOD,,,,,,ICY,JITTERBUG,short,resources/sound/catchTrials/audio_control_comp_project08.mp3,60fc195aaf93a05610b19f4c,28,Female,Right handed,2021-07-26_20h30.41.401,MA Experiment 2,2021.1.2,Win32,59.07372401,,,,,,0,7,7,7,1
1.6294,response_1,longValid,SOFA,ALPHABET,,,,,,MINER,EMERALD,short,resources/sound/trials/audio_stim_human6.mp3,60fc195aaf93a05610b19f4c,28,Female,Right handed,2021-07-26_20h30.41.401,MA Experiment 2,2021.1.2,Win32,59.07372401,2,3,71,13,1,,,,,
1.3822,response_2,shortFoil,WINDOW,LECTURER,,,,,,ROBBER,RATTLESNAKE,short,resources/sound/trials/audio_stim_human64.mp3,60fc195aaf93a05610b19f4c,28,Female,Right handed,2021-07-26_20h30.41.401,MA Experiment 2,2021.1.2,Win32,59.07372401,2,4,72,15,1,,,,,
1.2811,response_1,longValid,VESSEL,MOSQUITO,,,,,,ATHLETE,IVORY,short,resources/sound/trials/audio_stim_comp57.mp3,60fc195aaf93a05610b19f4c,28,Female,Right handed,2021-07-26_20h30.41.401,MA Experiment 2,2021.1.2,Win32,59.07372401,2,5,73,5,1,,,,,
1.2307,response_2,shortValid,HURDLE,JANITOR,,,,,,ROBBER,RATTLESNAKE,long,resources/sound/trials/audio_stim_human64.mp3,60fc195aaf93a05610b19f4c,28,Female,Right handed,2021-07-26_20h30.41.401,MA Experiment 2,2021.1.2,Win32,59.07372401,2,6,74,32,1,,,,,
1.5997,response_2,,TEMPLE,ATTENDANT,,,,,,CORNER,ENGINEER,long,resources/sound/catchTrials/audio_control_human_project14.mp3,60fc195aaf93a05610b19f4c,28,Female,Right handed,2021-07-26_20h30.41.401,MA Experiment 2,2021.1.2,Win32,59.07372401,,,,,,0,11,11,26,1
1.4794,response_1,longValid,DOORWAY,ENAMEL,,,,,,WORKER,VISITOR,long,resources/sound/trials/audio_stim_comp17.mp3,60fc195aaf93a05610b19f4c,28,Female,Right handed,2021-07-26_20h30.41.401,MA Experiment 2,2021.1.2,Win32,59.07372401,2,7,75,23,1,,,,,
2.0125,response_1,shortValid,NAPKIN,GOVERNMENT,,,,,,PARTY,SANCTUARY,short,resources/sound/trials/audio_stim_human50.mp3,60fc195aaf93a05610b19f4c,28,Female,Right handed,2021-07-26_20h30.41.401,MA Experiment 2,2021.1.2,Win32,59.07372401,2,8,76,14,1,,,,,
1.4761,response_1,longValid,BURNER,CINNAMON,,,,,,WHISTLE,TREASURER,short,resources/sound/trials/audio_stim_comp12.mp3,60fc195aaf93a05610b19f4c,28,Female,Right handed,2021-07-26_20h30.41.401,MA Experiment 2,2021.1.2,Win32,59.07372401,2,9,77,3,1,,,,,
1.1837,response_2,shortFoil,GIRDLE,CORRIDOR,,,,,,BRAINSTORM,GREEN NEEDLE,short,resources/sound/trials/audio_stim_original.mp3,60fc195aaf93a05610b19f4c,28,Female,Right handed,2021-07-26_20h30.41.401,MA Experiment 2,2021.1.2,Win32,59.07372401,2,10,78,16,1,,,,,
1.8465,response_1,,MISTRESS,CITIZEN,,,,,,JUGGLER,DANDELION,long,resources/sound/catchTrials/audio_control_human_project09.mp3,60fc195aaf93a05610b19f4c,28,Female,Right handed,2021-07-26_20h30.41.401,MA Experiment 2,2021.1.2,Win32,59.07372401,,,,,,0,1,1,31,1
1.1292,response_1,longFoil,HAMSTER,INDUSTRY,,,,,,DRIZZLE,CARDINAL,short,resources/sound/trials/audio_stim_comp69.mp3,60fc195aaf93a05610b19f4c,28,Female,Right handed,2021-07-26_20h30.41.401,MA Experiment 2,2021.1.2,Win32,59.07372401,2,11,79,0,1,,,,,
1.646,response_1,longFoil,ANCHOR,FAMILY,,,,,,RUBBER,PROPERTY,short,resources/sound/trials/audio_stim_human0.mp3,60fc195aaf93a05610b19f4c,28,Female,Right handed,2021-07-26_20h30.41.401,MA Experiment 2,2021.1.2,Win32,59.07372401,2,12,80,12,1,,,,,
1.2123,response_1,longFoil,VAPOUR,POTATO,,,,,,ATHLETE,IVORY,long,resources/sound/trials/audio_stim_comp57.mp3,60fc195aaf93a05610b19f4c,28,Female,Right handed,2021-07-26_20h30.41.401,MA Experiment 2,2021.1.2,Win32,59.07372401,2,13,81,22,1,,,,,
1.2949,response_2,longFoil,PERSON,HANDKERCHIEF,,,,,,CONCRETE,ENEMY,long,resources/sound/trials/audio_stim_human67.mp3,60fc195aaf93a05610b19f4c,28,Female,Right handed,2021-07-26_20h30.41.401,MA Experiment 2,2021.1.2,Win32,59.07372401,2,14,82,27,1,,,,,
1.1487,response_2,,FATHER,PHYSICIAN,,,,,,HOBBY,COLONY,short,resources/sound/catchTrials/audio_control_comp_project04.mp3,60fc195aaf93a05610b19f4c,28,Female,Right handed,2021-07-26_20h30.41.401,MA Experiment 2,2021.1.2,Win32,59.07372401,,,,,,0,15,15,2,1
1.7982,response_1,shortFoil,BERRY,AMMONIA,,,,,,WORKER,VISITOR,short,resources/sound/trials/audio_stim_comp17.mp3,60fc195aaf93a05610b19f4c,28,Female,Right handed,2021-07-26_20h30.41.401,MA Experiment 2,2021.1.2,Win32,59.07372401,2,15,83,6,1,,,,,
1.98,response_1,shortFoil,INVOICE,REFEREE,,,,,,PAINTER,VEHICLE,short,resources/sound/trials/audio_stim_human47.mp3,60fc195aaf93a05610b19f4c,28,Female,Right handed,2021-07-26_20h30.41.401,MA Experiment 2,2021.1.2,Win32,59.07372401,2,16,84,11,1,,,,,
1.1967,response_1,shortValid,SHEEPSKIN,INFECTION,,,,,,RUBBER,PROPERTY,long,resources/sound/trials/audio_stim_human0.mp3,60fc195aaf93a05610b19f4c,28,Female,Right handed,2021-07-26_20h30.41.401,MA Experiment 2,2021.1.2,Win32,59.07372401,2,17,85,29,1,,,,,
1.3651,response_1,shortFoil,NEIGHBOUR,GYMNASTICS,,,,,,WHISTLE,TREASURER,long,resources/sound/trials/audio_stim_comp12.mp3,60fc195aaf93a05610b19f4c,28,Female,Right handed,2021-07-26_20h30.41.401,MA Experiment 2,2021.1.2,Win32,59.07372401,2,18,86,20,1,,,,,
1.2324,response_1,,EARTHWORM,CANDLELIGHT,,,,,,VIOLET,LUBRICANT,short,resources/sound/catchTrials/audio_control_human_project07.mp3,60fc195aaf93a05610b19f4c,28,Female,Right handed,2021-07-26_20h30.41.401,MA Experiment 2,2021.1.2,Win32,59.07372401,,,,,,0,31,31,12,1
1.2142,response_1,longValid,MURAL,MINERAL,,,,,,PARTY,SANCTUARY,long,resources/sound/trials/audio_stim_human50.mp3,60fc195aaf93a05610b19f4c,28,Female,Right handed,2021-07-26_20h30.41.401,MA Experiment 2,2021.1.2,Win32,59.07372401,2,19,87,31,1,,,,,
1.2804,response_2,shortValid,DECOY,BUTTERFLY,,,,,,SACRED,GALAXY,long,resources/sound/trials/audio_stim_comp1.mp3,60fc195aaf93a05610b19f4c,28,Female,Right handed,2021-07-26_20h30.41.401,MA Experiment 2,2021.1.2,Win32,59.07372401,2,20,88,24,1,,,,,
0.6814,response_1,longFoil,STOCKING,SAXOPHONE,,,,,,PAINTER,VEHICLE,long,resources/sound/trials/audio_stim_human47.mp3,60fc195aaf93a05610b19f4c,28,Female,Right handed,2021-07-26_20h30.41.401,MA Experiment 2,2021.1.2,Win32,59.07372401,2,21,89,28,1,,,,,
0.9986,response_2,shortFoil,FERTILE,POLIO,,,,,,HARDWARE,OVERCOAT,short,resources/sound/trials/audio_stim_human35.mp3,60fc195aaf93a05610b19f4c,28,Female,Right handed,2021-07-26_20h30.41.401,MA Experiment 2,2021.1.2,Win32,59.07372401,2,22,90,8,1,,,,,
1.3806,response_1,,CAPTAIN,ENVELOPE,,,,,,VIOLET,LUBRICANT,long,resources/sound/catchTrials/audio_control_human_project07.mp3,60fc195aaf93a05610b19f4c,28,Female,Right handed,2021-07-26_20h30.41.401,MA Experiment 2,2021.1.2,Win32,59.07372401,,,,,,0,14,14,28,1
0.9464,response_2,longValid,MEASLES,ICICLE,,,,,,DAYLIGHT,MATERIAL,short,resources/sound/trials/audio_stim_human42.mp3,60fc195aaf93a05610b19f4c,28,Female,Right handed,2021-07-26_20h30.41.401,MA Experiment 2,2021.1.2,Win32,59.07372401,2,23,91,9,1,,,,,
2.2328,response_2,longValid,VALLEY,TEMPERATURE,,,,,,CONCRETE,ENEMY,short,resources/sound/trials/audio_stim_human67.mp3,60fc195aaf93a05610b19f4c,28,Female,Right handed,2021-07-26_20h30.41.401,MA Experiment 2,2021.1.2,Win32,59.07372401,2,24,92,10,1,,,,,
2.1492,response_1,longFoil,SCOOTER,MONUMENT,,,,,,MARBLE,CUSTOMER,short,resources/sound/trials/audio_stim_comp65.mp3,60fc195aaf93a05610b19f4c,28,Female,Right handed,2021-07-26_20h30.41.401,MA Experiment 2,2021.1.2,Win32,59.07372401,2,25,93,4,1,,,,,
0.6467,response_2,shortValid,WALRUS,INSTRUCTOR,,,,,,HARDWARE,OVERCOAT,long,resources/sound/trials/audio_stim_human35.mp3,60fc195aaf93a05610b19f4c,28,Female,Right handed,2021-07-26_20h30.41.401,MA Experiment 2,2021.1.2,Win32,59.07372401,2,26,94,25,1,,,,,
1.8121,response_2,,FAIRY,MEDICINE,,,,,,IRIS,VIOLIN,long,resources/sound/catchTrials/audio_control_human_project12.mp3,60fc195aaf93a05610b19f4c,28,Female,Right handed,2021-07-26_20h30.41.401,MA Experiment 2,2021.1.2,Win32,59.07372401,,,,,,0,25,25,24,1
1.5462,response_2,longFoil,INCOME,APPLIANCE,,,,,,RECEIPT,LIMOUSINE,long,resources/sound/trials/audio_stim_comp40.mp3,60fc195aaf93a05610b19f4c,28,Female,Right handed,2021-07-26_20h30.41.401,MA Experiment 2,2021.1.2,Win32,59.07372401,2,27,95,19,1,,,,,
1.1829,response_2,longValid,MOONLIGHT,OPENING,,,,,,DAYLIGHT,MATERIAL,long,resources/sound/trials/audio_stim_human42.mp3,60fc195aaf93a05610b19f4c,28,Female,Right handed,2021-07-26_20h30.41.401,MA Experiment 2,2021.1.2,Win32,59.07372401,2,28,96,26,1,,,,,
1.9801,response_2,longValid,BUTTER,AVENUE,,,,,,MINER,EMERALD,long,resources/sound/trials/audio_stim_comp6.mp3,60fc195aaf93a05610b19f4c,28,Female,Right handed,2021-07-26_20h30.41.401,MA Experiment 2,2021.1.2,Win32,59.07372401,2,29,97,18,1,,,,,
1.6653,response_2,longFoil,KENNEL,NEIGHBOURHOOD,,,,,,RECEIPT,LIMOUSINE,short,resources/sound/trials/audio_stim_comp40.mp3,60fc195aaf93a05610b19f4c,28,Female,Right handed,2021-07-26_20h30.41.401,MA Experiment 2,2021.1.2,Win32,59.07372401,2,30,98,2,1,,,,,
1.3468,response_2,,SINGER,UMBRELLA,,,,,,HOBBY,COLONY,long,resources/sound/catchTrials/audio_control_comp_project04.mp3,60fc195aaf93a05610b19f4c,28,Female,Right handed,2021-07-26_20h30.41.401,MA Experiment 2,2021.1.2,Win32,59.07372401,,,,,,0,3,3,18,1
2.2974,response_1,longFoil,DANCER,CROCODILE,,,,,,MARBLE,CUSTOMER,long,resources/sound/trials/audio_stim_comp65.mp3,60fc195aaf93a05610b19f4c,28,Female,Right handed,2021-07-26_20h30.41.401,MA Experiment 2,2021.1.2,Win32,59.07372401,2,31,99,21,1,,,,,
1.5637,response_2,shortValid,CURFEW,CABINET,,,,,,MINER,EMERALD,long,resources/sound/trials/audio_stim_human6.mp3,60fc195aaf93a05610b19f4c,28,Female,Right handed,2021-07-26_20h30.41.401,MA Experiment 2,2021.1.2,Win32,59.07372401,2,32,100,30,1,,,,,
0.4639,response_2,shortValid,PRINCESS,VINEGAR,,,,,,MINER,EMERALD,short,resources/sound/trials/audio_stim_comp6.mp3,60fc195aaf93a05610b19f4c,28,Female,Right handed,2021-07-26_20h30.41.401,MA Experiment 2,2021.1.2,Win32,59.07372401,2,33,101,1,1,,,,,
1.7482,response_2,shortValid,LIQUID,FACTORY,,,,,,DRIZZLE,CARDINAL,short,resources/sound/trials/audio_stim_comp69.mp3,60fc195aaf93a05610b19f4c,28,Female,Right handed,2021-07-26_20h30.41.401,MA Experiment 2,2021.1.2,Win32,59.07372401,3,0,102,0,1,,,,,
0.7145,response_2,shortFoil,FEVER,HEADQUARTERS,,,,,,MINER,EMERALD,long,resources/sound/trials/audio_stim_comp6.mp3,60fc195aaf93a05610b19f4c,28,Female,Right handed,2021-07-26_20h30.41.401,MA Experiment 2,2021.1.2,Win32,59.07372401,3,1,103,18,1,,,,,
1.6709,response_1,shortValid,RUSTY,CIGARETTE,,,,,,PAINTER,VEHICLE,short,resources/sound/trials/audio_stim_human47.mp3,60fc195aaf93a05610b19f4c,28,Female,Right handed,2021-07-26_20h30.41.401,MA Experiment 2,2021.1.2,Win32,59.07372401,3,2,104,11,1,,,,,
1.3797,response_2,,BISHOP,STRAWBERRY,,,,,,HOBBY,COLONY,short,resources/sound/catchTrials/audio_control_human_project04.mp3,60fc195aaf93a05610b19f4c,28,Female,Right handed,2021-07-26_20h30.41.401,MA Experiment 2,2021.1.2,Win32,59.07372401,,,,,,0,6,6,11,1
1.3327,response_2,shortValid,DIVING,CLARINET,,,,,,DAYLIGHT,MATERIAL,long,resources/sound/trials/audio_stim_human42.mp3,60fc195aaf93a05610b19f4c,28,Female,Right handed,2021-07-26_20h30.41.401,MA Experiment 2,2021.1.2,Win32,59.07372401,3,3,105,26,1,,,,,
1.3456,response_1,longFoil,OLIVE,ABDOMEN,,,,,,MINER,EMERALD,short,resources/sound/trials/audio_stim_human6.mp3,60fc195aaf93a05610b19f4c,28,Female,Right handed,2021-07-26_20h30.41.401,MA Experiment 2,2021.1.2,Win32,59.07372401,3,4,106,13,1,,,,,
0.813,response_2,longValid,HAMMER,MICROSCOPE,,,,,,SACRED,GALAXY,short,resources/sound/trials/audio_stim_comp1.mp3,60fc195aaf93a05610b19f4c,28,Female,Right handed,2021-07-26_20h30.41.401,MA Experiment 2,2021.1.2,Win32,59.07372401,3,5,107,7,1,,,,,
1.3815,response_2,shortFoil,CIGAR,SPECIALIST,,,,,,WORKER,VISITOR,long,resources/sound/trials/audio_stim_comp17.mp3,60fc195aaf93a05610b19f4c,28,Female,Right handed,2021-07-26_20h30.41.401,MA Experiment 2,2021.1.2,Win32,59.07372401,3,6,108,23,1,,,,,
1.3314,response_2,,POLO,POLICEMAN,,,,,,IRIS,VIOLIN,long,resources/sound/catchTrials/audio_control_comp_project12.mp3,60fc195aaf93a05610b19f4c,28,Female,Right handed,2021-07-26_20h30.41.401,MA Experiment 2,2021.1.2,Win32,59.07372401,,,,,,0,12,12,20,1
1.4134,response_2,longFoil,NURSERY,MOLECULE,,,,,,BRAINSTORM,GREEN NEEDLE,short,resources/sound/trials/audio_stim_original.mp3,60fc195aaf93a05610b19f4c,28,Female,Right handed,2021-07-26_20h30.41.401,MA Experiment 2,2021.1.2,Win32,59.07372401,3,7,109,16,1,,,,,
1.7324,response_1,shortFoil,RABBI,PROFESSOR,,,,,,MINER,EMERALD,short,resources/sound/trials/audio_stim_comp6.mp3,60fc195aaf93a05610b19f4c,28,Female,Right handed,2021-07-26_20h30.41.401,MA Experiment 2,2021.1.2,Win32,59.07372401,3,8,110,1,1,,,,,
0.4956,response_1,longFoil,PIANO,CAMERA,,,,,,WORKER,VISITOR,short,resources/sound/trials/audio_stim_comp17.mp3,60fc195aaf93a05610b19f4c,28,Female,Right handed,2021-07-26_20h30.41.401,MA Experiment 2,2021.1.2,Win32,59.07372401,3,9,111,6,1,,,,,
1.682,response_1,longValid,BEETLE,HONEYMOON,,,,,,DRIZZLE,CARDINAL,long,resources/sound/trials/audio_stim_comp69.mp3,60fc195aaf93a05610b19f4c,28,Female,Right handed,2021-07-26_20h30.41.401,MA Experiment 2,2021.1.2,Win32,59.07372401,3,10,112,17,1,,,,,
1.4467,response_2,,CHIPMUNK,HURRICANE,,,,,,NAVY,RECTANGLE,long,resources/sound/catchTrials/audio_control_comp_project06.mp3,60fc195aaf93a05610b19f4c,28,Female,Right handed,2021-07-26_20h30.41.401,MA Experiment 2,2021.1.2,Win32,59.07372401,,,,,,0,22,22,22,1
0.9999,response_2,shortValid,GRADUATE,GRASSHOPPER,,,,,,ATHLETE,IVORY,long,resources/sound/trials/audio_stim_comp57.mp3,60fc195aaf93a05610b19f4c,28,Female,Right handed,2021-07-26_20h30.41.401,MA Experiment 2,2021.1.2,Win32,59.07372401,3,11,113,22,1,,,,,
1.1932,response_2,longFoil,NECKLACE,ASBESTOS,,,,,,HARDWARE,OVERCOAT,long,resources/sound/trials/audio_stim_human35.mp3,60fc195aaf93a05610b19f4c,28,Female,Right handed,2021-07-26_20h30.41.401,MA Experiment 2,2021.1.2,Win32,59.07372401,3,12,114,25,1,,,,,
1.4657,response_2,shortFoil,SADDLE,BEVERAGE,,,,,,PAINTER,VEHICLE,long,resources/sound/trials/audio_stim_human47.mp3,60fc195aaf93a05610b19f4c,28,Female,Right handed,2021-07-26_20h30.41.401,MA Experiment 2,2021.1.2,Win32,59.07372401,3,13,115,28,1,,,,,
1.3129,response_1,longFoil,SHOULDER,SETTLEMENT,,,,,,MINER,EMERALD,long,resources/sound/trials/audio_stim_human6.mp3,60fc195aaf93a05610b19f4c,28,Female,Right handed,2021-07-26_20h30.41.401,MA Experiment 2,2021.1.2,Win32,59.07372401,3,14,116,30,1,,,,,
1.132,response_2,,PICTURE,DESTROYER,,,,,,SPINACH,APRICOT,long,resources/sound/catchTrials/audio_control_comp_project18.mp3,60fc195aaf93a05610b19f4c,28,Female,Right handed,2021-07-26_20h30.41.401,MA Experiment 2,2021.1.2,Win32,59.07372401,,,,,,0,28,28,21,1
1.5295,response_2,longFoil,DIAL,LEMONADE,,,,,,SACRED,GALAXY,long,resources/sound/trials/audio_stim_comp1.mp3,60fc195aaf93a05610b19f4c,28,Female,Right handed,2021-07-26_20h30.41.401,MA Experiment 2,2021.1.2,Win32,59.07372401,3,15,117,24,1,,,,,
1.6632,response_2,longFoil,TORTURE,ANTIQUE,,,,,,RUBBER,PROPERTY,long,resources/sound/trials/audio_stim_human0.mp3,60fc195aaf93a05610b19f4c,28,Female,Right handed,2021-07-26_20h30.41.401,MA Experiment 2,2021.1.2,Win32,59.07372401,3,16,118,29,1,,,,,
1.1982,response_2,shortValid,VILLAGE,FISHERMAN,,,,,,HARDWARE,OVERCOAT,short,resources/sound/trials/audio_stim_human35.mp3,60fc195aaf93a05610b19f4c,28,Female,Right handed,2021-07-26_20h30.41.401,MA Experiment 2,2021.1.2,Win32,59.07372401,3,17,119,8,1,,,,,
1.6821,response_1,shortValid,STATION,TANGERINE,,,,,,BRAINSTORM,GREEN NEEDLE,long,resources/sound/trials/audio_stim_original.mp3,60fc195aaf93a05610b19f4c,28,Female,Right handed,2021-07-26_20h30.41.401,MA Experiment 2,2021.1.2,Win32,59.07372401,3,18,120,33,1,,,,,
1.6963,response_2,,LEADER,RETAILER,,,,,,IRIS,VIOLIN,short,resources/sound/catchTrials/audio_control_human_project12.mp3,60fc195aaf93a05610b19f4c,28,Female,Right handed,2021-07-26_20h30.41.401,MA Experiment 2,2021.1.2,Win32,59.07372401,,,,,,0,16,16,8,1
1.8623,response_2,shortFoil,UNCLE,PROPELLER,,,,,,RECEIPT,LIMOUSINE,short,resources/sound/trials/audio_stim_comp40.mp3,60fc195aaf93a05610b19f4c,28,Female,Right handed,2021-07-26_20h30.41.401,MA Experiment 2,2021.1.2,Win32,59.07372401,3,19,121,2,1,,,,,
1.163,response_2,longFoil,NOVEL,CONVENTION,,,,,,ROBBER,RATTLESNAKE,long,resources/sound/trials/audio_stim_human64.mp3,60fc195aaf93a05610b19f4c,28,Female,Right handed,2021-07-26_20h30.41.401,MA Experiment 2,2021.1.2,Win32,59.07372401,3,20,122,32,1,,,,,
1.8458,response_1,shortValid,CRYSTAL,EMULSION,,,,,,MARBLE,CUSTOMER,long,resources/sound/trials/audio_stim_comp65.mp3,60fc195aaf93a05610b19f4c,28,Female,Right handed,2021-07-26_20h30.41.401,MA Experiment 2,2021.1.2,Win32,59.07372401,3,21,123,21,1,,,,,
1.6168,response_1,shortValid,KERNEL,INSTITUTE,,,,,,WHISTLE,TREASURER,long,resources/sound/trials/audio_stim_comp12.mp3,60fc195aaf93a05610b19f4c,28,Female,Right handed,2021-07-26_20h30.41.401,MA Experiment 2,2021.1.2,Win32,59.07372401,3,22,124,20,1,,,,,
1.763,response_2,,TRAITOR,MERCURY,,,,,,BORDER,ALGEBRA,long,resources/sound/catchTrials/audio_control_comp_project00.mp3,60fc195aaf93a05610b19f4c,28,Female,Right handed,2021-07-26_20h30.41.401,MA Experiment 2,2021.1.2,Win32,59.07372401,,,,,,0,30,30,16,1
1.4843,response_1,shortFoil,EVENING,MINISTER,,,,,,DAYLIGHT,MATERIAL,short,resources/sound/trials/audio_stim_human42.mp3,60fc195aaf93a05610b19f4c,28,Female,Right handed,2021-07-26_20h30.41.401,MA Experiment 2,2021.1.2,Win32,59.07372401,3,23,125,9,1,,,,,
1.2814,response_2,shortFoil,PATIENT,CAPITAL,,,,,,ATHLETE,IVORY,short,resources/sound/trials/audio_stim_comp57.mp3,60fc195aaf93a05610b19f4c,28,Female,Right handed,2021-07-26_20h30.41.401,MA Experiment 2,2021.1.2,Win32,59.07372401,3,24,126,5,1,,,,,
2.2155,response_1,longFoil,KETTLE,CARNATION,,,,,,WHISTLE,TREASURER,short,resources/sound/trials/audio_stim_comp12.mp3,60fc195aaf93a05610b19f4c,28,Female,Right handed,2021-07-26_20h30.41.401,MA Experiment 2,2021.1.2,Win32,59.07372401,3,25,127,3,1,,,,,
1.166,response_3,shortValid,DUEL,OXYGEN,,,,,,PARTY,SANCTUARY,long,resources/sound/trials/audio_stim_human50.mp3,60fc195aaf93a05610b19f4c,28,Female,Right handed,2021-07-26_20h30.41.401,MA Experiment 2,2021.1.2,Win32,59.07372401,3,26,128,31,1,,,,,
1.7641,response_2,,ACRE,FURNITURE,,,,,,SPINACH,APRICOT,short,resources/sound/catchTrials/audio_control_comp_project18.mp3,60fc195aaf93a05610b19f4c,28,Female,Right handed,2021-07-26_20h30.41.401,MA Experiment 2,2021.1.2,Win32,59.07372401,,,,,,0,27,27,5,1
2.048,response_2,shortValid,CANTEEN,GALLERY,,,,,,CONCRETE,ENEMY,long,resources/sound/trials/audio_stim_human67.mp3,60fc195aaf93a05610b19f4c,28,Female,Right handed,2021-07-26_20h30.41.401,MA Experiment 2,2021.1.2,Win32,59.07372401,3,27,129,27,1,,,,,
1.4295,response_1,shortFoil,JURY,MECHANIC,,,,,,PARTY,SANCTUARY,short,resources/sound/trials/audio_stim_human50.mp3,60fc195aaf93a05610b19f4c,28,Female,Right handed,2021-07-26_20h30.41.401,MA Experiment 2,2021.1.2,Win32,59.07372401,3,28,130,14,1,,,,,
1.4487,response_1,shortValid,NATIVE,NEWSPAPER,,,,,,CONCRETE,ENEMY,short,resources/sound/trials/audio_stim_human67.mp3,60fc195aaf93a05610b19f4c,28,Female,Right handed,2021-07-26_20h30.41.401,MA Experiment 2,2021.1.2,Win32,59.07372401,3,29,131,10,1,,,,,
2.0492,response_1,longValid,SODA,CHOCOLATE,,,,,,RUBBER,PROPERTY,short,resources/sound/trials/audio_stim_human0.mp3,60fc195aaf93a05610b19f4c,28,Female,Right handed,2021-07-26_20h30.41.401,MA Experiment 2,2021.1.2,Win32,59.07372401,3,30,132,12,1,,,,,
1.5452,response_2,,WAFER,DIAMOND,,,,,,HOBBY,COLONY,long,resources/sound/catchTrials/audio_control_human_project04.mp3,60fc195aaf93a05610b19f4c,28,Female,Right handed,2021-07-26_20h30.41.401,MA Experiment 2,2021.1.2,Win32,59.07372401,,,,,,0,21,21,27,1
1.7634,response_2,longValid,LOBSTER,ATHLETICS,,,,,,RECEIPT,LIMOUSINE,long,resources/sound/trials/audio_stim_comp40.mp3,60fc195aaf93a05610b19f4c,28,Female,Right handed,2021-07-26_20h30.41.401,MA Experiment 2,2021.1.2,Win32,59.07372401,3,31,133,19,1,,,,,
2.4131,response_1,shortFoil,FOREARM,AMBULANCE,,,,,,MARBLE,CUSTOMER,short,resources/sound/trials/audio_stim_comp65.mp3,60fc195aaf93a05610b19f4c,28,Female,Right handed,2021-07-26_20h30.41.401,MA Experiment 2,2021.1.2,Win32,59.07372401,3,32,134,4,1,,,,,
1.4613,response_2,longFoil,SEGMENT,ORNAMENT,,,,,,ROBBER,RATTLESNAKE,short,resources/sound/trials/audio_stim_human64.mp3,60fc195aaf93a05610b19f4c,28,Female,Right handed,2021-07-26_20h30.41.401,MA Experiment 2,2021.1.2,Win32,59.07372401,3,33,135,15,1,,,,,
