response.time,response,cueTarget,rand_foil_1,rand_foil_2,prac_trials.thisRepN,prac_trials.thisTrialN,prac_trials.thisN,prac_trials.thisIndex,prac_trials.ran,word_1,word_2,cue,file_path,participant,age,gender,handedness,date,expName,psychopyVersion,OS,frameRate,trials.thisRepN,trials.thisTrialN,trials.thisN,trials.thisIndex,trials.ran,catchTrials.thisRepN,catchTrials.thisTrialN,catchTrials.thisN,catchTrials.thisIndex,catchTrials.ran
1.2596,response_2,shortValid,VILLAGE,MONUMENT,0,0,0,7,1,BUCKLE,WALLABY,long,resources/sound/prac_trials/practice_cue_human7.mp3,60fd2a117181bc22b970997d,20,Female,Right handed,2021-07-26_21h04.27.447,MA Experiment 2,2021.1.2,Win32,82.46062505,,,,,,,,,,
1.041,response_1,shortValid,KENNEL,AMBULANCE,0,1,1,5,1,NONSENSE,OASIS,short,resources/sound/prac_trials/practice_cue_human5.mp3,60fd2a117181bc22b970997d,20,Female,Right handed,2021-07-26_21h04.27.447,MA Experiment 2,2021.1.2,Win32,82.46062505,,,,,,,,,,
1.0933,response_2,longValid,STOCKING,CONVENTION,0,2,2,3,1,EAGER,QUALIFY,short,resources/sound/prac_trials/practice_cue_human3.mp3,60fd2a117181bc22b970997d,20,Female,Right handed,2021-07-26_21h04.27.447,MA Experiment 2,2021.1.2,Win32,82.46062505,,,,,,,,,,
1.5242,response_1,longValid,DIAL,ADMIRAL,0,3,3,11,1,KETCHUP,GONDOLA,long,resources/sound/prac_trials/practice_cue_human11.mp3,60fd2a117181bc22b970997d,20,Female,Right handed,2021-07-26_21h04.27.447,MA Experiment 2,2021.1.2,Win32,82.46062505,,,,,,,,,,
0.6918,response_1,shortFoil,VAPOUR,FAMILY,0,4,4,10,1,SAFFRON,JAVELIN,long,resources/sound/prac_trials/practice_cue10.mp3,60fd2a117181bc22b970997d,20,Female,Right handed,2021-07-26_21h04.27.447,MA Experiment 2,2021.1.2,Win32,82.46062505,,,,,,,,,,
0.9205,response_2,longFoil,KETTLE,CIGARETTE,0,5,5,2,1,RECENT,TOBACCO,short,resources/sound/prac_trials/practice_cue2.mp3,60fd2a117181bc22b970997d,20,Female,Right handed,2021-07-26_21h04.27.447,MA Experiment 2,2021.1.2,Win32,82.46062505,,,,,,,,,,
1.0293,response_2,longFoil,GRADUATE,MEDICINE,0,6,6,4,1,FIZZY,ELECTRIC,short,resources/sound/prac_trials/practice_cue4.mp3,60fd2a117181bc22b970997d,20,Female,Right handed,2021-07-26_21h04.27.447,MA Experiment 2,2021.1.2,Win32,82.46062505,,,,,,,,,,
1.3011,response_2,shortValid,NAPKIN,NEIGHBOURHOOD,0,7,7,0,1,AARDVARK,FALLACY,short,resources/sound/prac_trials/practice_cue0.mp3,60fd2a117181bc22b970997d,20,Female,Right handed,2021-07-26_21h04.27.447,MA Experiment 2,2021.1.2,Win32,82.46062505,,,,,,,,,,
0.9307,response_2,longValid,PIANO,INSTITUTE,0,8,8,6,1,VACANT,SALVATION,long,resources/sound/prac_trials/practice_cue6.mp3,60fd2a117181bc22b970997d,20,Female,Right handed,2021-07-26_21h04.27.447,MA Experiment 2,2021.1.2,Win32,82.46062505,,,,,,,,,,
0.7109,response_2,longValid,MOONLIGHT,REFEREE,0,9,9,9,1,GRUMPY,LABYRINTH,long,resources/sound/prac_trials/practice_cue_human9.mp3,60fd2a117181bc22b970997d,20,Female,Right handed,2021-07-26_21h04.27.447,MA Experiment 2,2021.1.2,Win32,82.46062505,,,,,,,,,,
0.8082,response_1,shortValid,INVOICE,ASBESTOS,0,10,10,1,1,CABLE,REPUBLIC,short,resources/sound/prac_trials/practice_cue_human1.mp3,60fd2a117181bc22b970997d,20,Female,Right handed,2021-07-26_21h04.27.447,MA Experiment 2,2021.1.2,Win32,82.46062505,,,,,,,,,,
0.8594,response_2,shortValid,NURSERY,CANDLELIGHT,0,11,11,8,1,DAGGER,EMPHASIS,long,resources/sound/prac_trials/practice_cue8.mp3,60fd2a117181bc22b970997d,20,Female,Right handed,2021-07-26_21h04.27.447,MA Experiment 2,2021.1.2,Win32,82.46062505,,,,,,,,,,
0.8389,response_2,shortFoil,PERSON,CAPITAL,,,,,,MARBLE,CUSTOMER,long,resources/sound/trials/audio_stim_comp65.mp3,60fd2a117181bc22b970997d,20,Female,Right handed,2021-07-26_21h04.27.447,MA Experiment 2,2021.1.2,Win32,82.46062505,0,0,0,21,1,,,,,
1.0367,response_1,longFoil,NATIVE,CAMERA,,,,,,RECEIPT,LIMOUSINE,short,resources/sound/trials/audio_stim_comp40.mp3,60fd2a117181bc22b970997d,20,Female,Right handed,2021-07-26_21h04.27.447,MA Experiment 2,2021.1.2,Win32,82.46062505,0,1,1,2,1,,,,,
1.3948,response_2,longFoil,CURFEW,HURRICANE,,,,,,RUBBER,PROPERTY,long,resources/sound/trials/audio_stim_human0.mp3,60fd2a117181bc22b970997d,20,Female,Right handed,2021-07-26_21h04.27.447,MA Experiment 2,2021.1.2,Win32,82.46062505,0,2,2,29,1,,,,,
0.6495,response_1,,OLIVE,SETTLEMENT,,,,,,JUGGLER,DANDELION,long,resources/sound/catchTrials/audio_control_human_project09.mp3,60fd2a117181bc22b970997d,20,Female,Right handed,2021-07-26_21h04.27.447,MA Experiment 2,2021.1.2,Win32,82.46062505,,,,,,0,24,24,31,1
0.9401,response_1,shortValid,SINGER,BEVERAGE,,,,,,WHISTLE,TREASURER,long,resources/sound/trials/audio_stim_comp12.mp3,60fd2a117181bc22b970997d,20,Female,Right handed,2021-07-26_21h04.27.447,MA Experiment 2,2021.1.2,Win32,82.46062505,0,3,3,20,1,,,,,
0.8303,response_1,longValid,WIRE,GOVERNMENT,,,,,,PARTY,SANCTUARY,short,resources/sound/trials/audio_stim_human50.mp3,60fd2a117181bc22b970997d,20,Female,Right handed,2021-07-26_21h04.27.447,MA Experiment 2,2021.1.2,Win32,82.46062505,0,4,4,14,1,,,,,
0.8049,response_2,longValid,SEGMENT,MINERAL,,,,,,DRIZZLE,CARDINAL,short,resources/sound/trials/audio_stim_comp69.mp3,60fd2a117181bc22b970997d,20,Female,Right handed,2021-07-26_21h04.27.447,MA Experiment 2,2021.1.2,Win32,82.46062505,0,5,5,0,1,,,,,
0.9952,response_1,longValid,EVENING,DISSECTION,,,,,,HARDWARE,OVERCOAT,long,resources/sound/trials/audio_stim_human35.mp3,60fd2a117181bc22b970997d,20,Female,Right handed,2021-07-26_21h04.27.447,MA Experiment 2,2021.1.2,Win32,82.46062505,0,6,6,25,1,,,,,
0.8409,response_2,,BERRY,MECHANIC,,,,,,CORNER,ENGINEER,long,resources/sound/catchTrials/audio_control_human_project14.mp3,60fd2a117181bc22b970997d,20,Female,Right handed,2021-07-26_21h04.27.447,MA Experiment 2,2021.1.2,Win32,82.46062505,,,,,,0,17,17,26,1
0.707,response_2,shortValid,TRAITOR,PROJECTOR,,,,,,SACRED,GALAXY,short,resources/sound/trials/audio_stim_comp1.mp3,60fd2a117181bc22b970997d,20,Female,Right handed,2021-07-26_21h04.27.447,MA Experiment 2,2021.1.2,Win32,82.46062505,0,7,7,7,1,,,,,
0.7446,response_2,shortFoil,POLO,VINEGAR,,,,,,PARTY,SANCTUARY,long,resources/sound/trials/audio_stim_human50.mp3,60fd2a117181bc22b970997d,20,Female,Right handed,2021-07-26_21h04.27.447,MA Experiment 2,2021.1.2,Win32,82.46062505,0,8,8,31,1,,,,,
1.1006,response_1,longFoil,VESSEL,FISHERMAN,,,,,,MINER,EMERALD,long,resources/sound/trials/audio_stim_human6.mp3,60fd2a117181bc22b970997d,20,Female,Right handed,2021-07-26_21h04.27.447,MA Experiment 2,2021.1.2,Win32,82.46062505,0,9,9,30,1,,,,,
0.8462,response_1,longValid,CIGAR,ALCOHOL,,,,,,WORKER,VISITOR,long,resources/sound/trials/audio_stim_comp17.mp3,60fd2a117181bc22b970997d,20,Female,Right handed,2021-07-26_21h04.27.447,MA Experiment 2,2021.1.2,Win32,82.46062505,0,10,10,23,1,,,,,
0.8754,response_2,,SODA,GINGERBREAD,,,,,,ICY,JITTERBUG,short,resources/sound/catchTrials/audio_control_comp_project08.mp3,60fd2a117181bc22b970997d,20,Female,Right handed,2021-07-26_21h04.27.447,MA Experiment 2,2021.1.2,Win32,82.46062505,,,,,,0,12,12,7,1
1.1551,response_2,shortValid,DWELLER,FIREWOOD,,,,,,ATHLETE,IVORY,long,resources/sound/trials/audio_stim_comp57.mp3,60fd2a117181bc22b970997d,20,Female,Right handed,2021-07-26_21h04.27.447,MA Experiment 2,2021.1.2,Win32,82.46062505,0,11,11,22,1,,,,,
0.9047,response_1,shortFoil,MEASLES,ENVELOPE,,,,,,DAYLIGHT,MATERIAL,long,resources/sound/trials/audio_stim_human42.mp3,60fd2a117181bc22b970997d,20,Female,Right handed,2021-07-26_21h04.27.447,MA Experiment 2,2021.1.2,Win32,82.46062505,0,12,12,26,1,,,,,
0.6619,response_1,shortFoil,SHEEPSKIN,COMMITTEE,,,,,,MARBLE,CUSTOMER,short,resources/sound/trials/audio_stim_comp65.mp3,60fd2a117181bc22b970997d,20,Female,Right handed,2021-07-26_21h04.27.447,MA Experiment 2,2021.1.2,Win32,82.46062505,0,13,13,4,1,,,,,
1.1723,response_2,shortFoil,PICTURE,PHOTOGRAPH,,,,,,BRAINSTORM,GREEN NEEDLE,short,resources/sound/trials/audio_stim_original.mp3,60fd2a117181bc22b970997d,20,Female,Right handed,2021-07-26_21h04.27.447,MA Experiment 2,2021.1.2,Win32,82.46062505,0,14,14,16,1,,,,,
0.885,response_2,,CABIN,MERCURY,,,,,,HOBBY,COLONY,long,resources/sound/catchTrials/audio_control_comp_project04.mp3,60fd2a117181bc22b970997d,20,Female,Right handed,2021-07-26_21h04.27.447,MA Experiment 2,2021.1.2,Win32,82.46062505,,,,,,0,7,7,18,1
1.2063,response_2,longFoil,WRITING,LECTURER,,,,,,CONCRETE,ENEMY,short,resources/sound/trials/audio_stim_human67.mp3,60fd2a117181bc22b970997d,20,Female,Right handed,2021-07-26_21h04.27.447,MA Experiment 2,2021.1.2,Win32,82.46062505,0,15,15,10,1,,,,,
0.9535,response_1,shortValid,SADDLE,CABINET,,,,,,ATHLETE,IVORY,short,resources/sound/trials/audio_stim_comp57.mp3,60fd2a117181bc22b970997d,20,Female,Right handed,2021-07-26_21h04.27.447,MA Experiment 2,2021.1.2,Win32,82.46062505,0,16,16,5,1,,,,,
1.1127,response_2,longFoil,CANTEEN,GALLERY,,,,,,ROBBER,RATTLESNAKE,long,resources/sound/trials/audio_stim_human64.mp3,60fd2a117181bc22b970997d,20,Female,Right handed,2021-07-26_21h04.27.447,MA Experiment 2,2021.1.2,Win32,82.46062505,0,17,17,32,1,,,,,
0.7422,response_1,longValid,FERTILE,OXYGEN,,,,,,SACRED,GALAXY,long,resources/sound/trials/audio_stim_comp1.mp3,60fd2a117181bc22b970997d,20,Female,Right handed,2021-07-26_21h04.27.447,MA Experiment 2,2021.1.2,Win32,82.46062505,0,18,18,24,1,,,,,
0.8956,response_2,,GIRDLE,PHYSICIAN,,,,,,CORNER,ENGINEER,long,resources/sound/catchTrials/audio_control_comp_project14.mp3,60fd2a117181bc22b970997d,20,Female,Right handed,2021-07-26_21h04.27.447,MA Experiment 2,2021.1.2,Win32,82.46062505,,,,,,0,4,4,17,1
1.4785,response_2,longFoil,BUTTER,PROPELLER,,,,,,MINER,EMERALD,long,resources/sound/trials/audio_stim_comp6.mp3,60fd2a117181bc22b970997d,20,Female,Right handed,2021-07-26_21h04.27.447,MA Experiment 2,2021.1.2,Win32,82.46062505,0,19,19,18,1,,,,,
0.8808,response_2,longValid,CAPTAIN,CATHEDRAL,,,,,,DRIZZLE,CARDINAL,long,resources/sound/trials/audio_stim_comp69.mp3,60fd2a117181bc22b970997d,20,Female,Right handed,2021-07-26_21h04.27.447,MA Experiment 2,2021.1.2,Win32,82.46062505,0,20,20,17,1,,,,,
0.6803,response_1,longValid,EARTHWORM,CORRIDOR,,,,,,WORKER,VISITOR,short,resources/sound/trials/audio_stim_comp17.mp3,60fd2a117181bc22b970997d,20,Female,Right handed,2021-07-26_21h04.27.447,MA Experiment 2,2021.1.2,Win32,82.46062505,0,21,21,6,1,,,,,
0.9588,response_2,shortValid,NECKLACE,OPENING,,,,,,WHISTLE,TREASURER,short,resources/sound/trials/audio_stim_comp12.mp3,60fd2a117181bc22b970997d,20,Female,Right handed,2021-07-26_21h04.27.447,MA Experiment 2,2021.1.2,Win32,82.46062505,0,22,22,3,1,,,,,
0.7602,response_2,,UNCLE,POTATO,,,,,,NAVY,RECTANGLE,long,resources/sound/catchTrials/audio_control_human_project06.mp3,60fd2a117181bc22b970997d,20,Female,Right handed,2021-07-26_21h04.27.447,MA Experiment 2,2021.1.2,Win32,82.46062505,,,,,,0,26,26,30,1
0.9711,response_2,longFoil,CHIPMUNK,HONEYMOON,,,,,,RUBBER,PROPERTY,short,resources/sound/trials/audio_stim_human0.mp3,60fd2a117181bc22b970997d,20,Female,Right handed,2021-07-26_21h04.27.447,MA Experiment 2,2021.1.2,Win32,82.46062505,0,23,23,12,1,,,,,
1.2304,response_1,longFoil,STATION,DESTROYER,,,,,,DAYLIGHT,MATERIAL,short,resources/sound/trials/audio_stim_human42.mp3,60fd2a117181bc22b970997d,20,Female,Right handed,2021-07-26_21h04.27.447,MA Experiment 2,2021.1.2,Win32,82.46062505,0,24,24,9,1,,,,,
0.8905,response_1,shortFoil,TUMBLE,HANDKERCHIEF,,,,,,PAINTER,VEHICLE,long,resources/sound/trials/audio_stim_human47.mp3,60fd2a117181bc22b970997d,20,Female,Right handed,2021-07-26_21h04.27.447,MA Experiment 2,2021.1.2,Win32,82.46062505,0,25,25,28,1,,,,,
0.7303,response_1,longFoil,BURNER,EMULSION,,,,,,MINER,EMERALD,short,resources/sound/trials/audio_stim_human6.mp3,60fd2a117181bc22b970997d,20,Female,Right handed,2021-07-26_21h04.27.447,MA Experiment 2,2021.1.2,Win32,82.46062505,0,26,26,13,1,,,,,
0.8559,response_2,,HURDLE,ALPHABET,,,,,,HOBBY,COLONY,long,resources/sound/catchTrials/audio_control_human_project04.mp3,60fd2a117181bc22b970997d,20,Female,Right handed,2021-07-26_21h04.27.447,MA Experiment 2,2021.1.2,Win32,82.46062505,,,,,,0,29,29,27,1
1.2702,response_2,longValid,ANCHOR,CINNAMON,,,,,,CONCRETE,ENEMY,long,resources/sound/trials/audio_stim_human67.mp3,60fd2a117181bc22b970997d,20,Female,Right handed,2021-07-26_21h04.27.447,MA Experiment 2,2021.1.2,Win32,82.46062505,0,27,27,27,1,,,,,
0.8479,response_2,longFoil,FEVER,ENAMEL,,,,,,ROBBER,RATTLESNAKE,short,resources/sound/trials/audio_stim_human64.mp3,60fd2a117181bc22b970997d,20,Female,Right handed,2021-07-26_21h04.27.447,MA Experiment 2,2021.1.2,Win32,82.46062505,0,28,28,15,1,,,,,
0.6807,response_1,longFoil,HARBOUR,MINISTER,,,,,,PAINTER,VEHICLE,short,resources/sound/trials/audio_stim_human47.mp3,60fd2a117181bc22b970997d,20,Female,Right handed,2021-07-26_21h04.27.447,MA Experiment 2,2021.1.2,Win32,82.46062505,0,29,29,11,1,,,,,
0.7492,response_1,shortValid,HAMMER,INSTRUMENT,,,,,,RECEIPT,LIMOUSINE,long,resources/sound/trials/audio_stim_comp40.mp3,60fd2a117181bc22b970997d,20,Female,Right handed,2021-07-26_21h04.27.447,MA Experiment 2,2021.1.2,Win32,82.46062505,0,30,30,19,1,,,,,
0.6898,response_2,,WAFER,INDUSTRY,,,,,,NAVY,RECTANGLE,short,resources/sound/catchTrials/audio_control_human_project06.mp3,60fd2a117181bc22b970997d,20,Female,Right handed,2021-07-26_21h04.27.447,MA Experiment 2,2021.1.2,Win32,82.46062505,,,,,,0,31,31,14,1
1.1242,response_2,shortValid,RUSTY,HEADQUARTERS,,,,,,HARDWARE,OVERCOAT,short,resources/sound/trials/audio_stim_human35.mp3,60fd2a117181bc22b970997d,20,Female,Right handed,2021-07-26_21h04.27.447,MA Experiment 2,2021.1.2,Win32,82.46062505,0,31,31,8,1,,,,,
0.732,response_1,longValid,TWEEZER,AMMONIA,,,,,,MINER,EMERALD,short,resources/sound/trials/audio_stim_comp6.mp3,60fd2a117181bc22b970997d,20,Female,Right handed,2021-07-26_21h04.27.447,MA Experiment 2,2021.1.2,Win32,82.46062505,0,32,32,1,1,,,,,
0.8745,response_2,shortFoil,PODIUM,INJURY,,,,,,BRAINSTORM,GREEN NEEDLE,long,resources/sound/trials/audio_stim_original.mp3,60fd2a117181bc22b970997d,20,Female,Right handed,2021-07-26_21h04.27.447,MA Experiment 2,2021.1.2,Win32,82.46062505,0,33,33,33,1,,,,,
0.826,response_1,shortValid,SHOULDER,GRASSHOPPER,,,,,,PAINTER,VEHICLE,short,resources/sound/trials/audio_stim_human47.mp3,60fd2a117181bc22b970997d,20,Female,Right handed,2021-07-26_21h04.27.447,MA Experiment 2,2021.1.2,Win32,82.46062505,1,0,34,11,1,,,,,
1.9759,response_1,longFoil,TEMPLE,TEMPERATURE,,,,,,RECEIPT,LIMOUSINE,long,resources/sound/trials/audio_stim_comp40.mp3,60fd2a117181bc22b970997d,20,Female,Right handed,2021-07-26_21h04.27.447,MA Experiment 2,2021.1.2,Win32,82.46062505,1,1,35,19,1,,,,,
0.871,response_2,longValid,VALLEY,APPLIANCE,,,,,,BRAINSTORM,GREEN NEEDLE,long,resources/sound/trials/audio_stim_original.mp3,60fd2a117181bc22b970997d,20,Female,Right handed,2021-07-26_21h04.27.447,MA Experiment 2,2021.1.2,Win32,82.46062505,1,2,36,33,1,,,,,
0.8937,response_2,,WALRUS,CITIZEN,,,,,,NAVY,RECTANGLE,short,resources/sound/catchTrials/audio_control_comp_project06.mp3,60fd2a117181bc22b970997d,20,Female,Right handed,2021-07-26_21h04.27.447,MA Experiment 2,2021.1.2,Win32,82.46062505,,,,,,0,15,15,6,1
1.6092,response_1,longValid,MURDER,SAXOPHONE,,,,,,DAYLIGHT,MATERIAL,short,resources/sound/trials/audio_stim_human42.mp3,60fd2a117181bc22b970997d,20,Female,Right handed,2021-07-26_21h04.27.447,MA Experiment 2,2021.1.2,Win32,82.46062505,1,3,37,9,1,,,,,
0.7931,response_1,shortValid,DECOY,JANITOR,,,,,,RECEIPT,LIMOUSINE,short,resources/sound/trials/audio_stim_comp40.mp3,60fd2a117181bc22b970997d,20,Female,Right handed,2021-07-26_21h04.27.447,MA Experiment 2,2021.1.2,Win32,82.46062505,1,4,38,2,1,,,,,
0.7434,response_2,shortValid,SULPHUR,CARNATION,,,,,,ROBBER,RATTLESNAKE,long,resources/sound/trials/audio_stim_human64.mp3,60fd2a117181bc22b970997d,20,Female,Right handed,2021-07-26_21h04.27.447,MA Experiment 2,2021.1.2,Win32,82.46062505,1,5,39,32,1,,,,,
0.8464,response_1,longValid,MISTRESS,INSTRUCTOR,,,,,,HARDWARE,OVERCOAT,short,resources/sound/trials/audio_stim_human35.mp3,60fd2a117181bc22b970997d,20,Female,Right handed,2021-07-26_21h04.27.447,MA Experiment 2,2021.1.2,Win32,82.46062505,1,6,40,8,1,,,,,
0.6266,response_2,,FATHER,CROCODILE,,,,,,HOBBY,COLONY,short,resources/sound/catchTrials/audio_control_human_project04.mp3,60fd2a117181bc22b970997d,20,Female,Right handed,2021-07-26_21h04.27.447,MA Experiment 2,2021.1.2,Win32,82.46062505,,,,,,0,13,13,11,1
0.8911,response_1,shortValid,NEIGHBOUR,INFECTION,,,,,,CONCRETE,ENEMY,long,resources/sound/trials/audio_stim_human67.mp3,60fd2a117181bc22b970997d,20,Female,Right handed,2021-07-26_21h04.27.447,MA Experiment 2,2021.1.2,Win32,82.46062505,1,7,41,27,1,,,,,
0.5332,response_1,longFoil,OFFICE,POLIO,,,,,,WHISTLE,TREASURER,short,resources/sound/trials/audio_stim_comp12.mp3,60fd2a117181bc22b970997d,20,Female,Right handed,2021-07-26_21h04.27.447,MA Experiment 2,2021.1.2,Win32,82.46062505,1,8,42,3,1,,,,,
0.9401,response_1,longValid,LIGHTNING,CHOCOLATE,,,,,,MARBLE,CUSTOMER,long,resources/sound/trials/audio_stim_comp65.mp3,60fd2a117181bc22b970997d,20,Female,Right handed,2021-07-26_21h04.27.447,MA Experiment 2,2021.1.2,Win32,82.46062505,1,9,43,21,1,,,,,
0.8982,response_2,shortValid,LIQUID,CLARINET,,,,,,DAYLIGHT,MATERIAL,long,resources/sound/trials/audio_stim_human42.mp3,60fd2a117181bc22b970997d,20,Female,Right handed,2021-07-26_21h04.27.447,MA Experiment 2,2021.1.2,Win32,82.46062505,1,10,44,26,1,,,,,
1.2718,response_2,,HAMSTER,STRAWBERRY,,,,,,IRIS,VIOLIN,long,resources/sound/catchTrials/audio_control_comp_project12.mp3,60fd2a117181bc22b970997d,20,Female,Right handed,2021-07-26_21h04.27.447,MA Experiment 2,2021.1.2,Win32,82.46062505,,,,,,0,20,20,20,1
1.0102,response_1,longFoil,LEADER,BUTTERFLY,,,,,,WHISTLE,TREASURER,long,resources/sound/trials/audio_stim_comp12.mp3,60fd2a117181bc22b970997d,20,Female,Right handed,2021-07-26_21h04.27.447,MA Experiment 2,2021.1.2,Win32,82.46062505,1,11,45,20,1,,,,,
1.0747,response_1,longFoil,CEREAL,GORILLA,,,,,,PAINTER,VEHICLE,long,resources/sound/trials/audio_stim_human47.mp3,60fd2a117181bc22b970997d,20,Female,Right handed,2021-07-26_21h04.27.447,MA Experiment 2,2021.1.2,Win32,82.46062505,1,12,46,28,1,,,,,
1.1899,response_1,shortFoil,MUSCLE,ORNAMENT,,,,,,WORKER,VISITOR,long,resources/sound/trials/audio_stim_comp17.mp3,60fd2a117181bc22b970997d,20,Female,Right handed,2021-07-26_21h04.27.447,MA Experiment 2,2021.1.2,Win32,82.46062505,1,13,47,23,1,,,,,
1.0452,response_2,shortValid,DOORWAY,ABDOMEN,,,,,,CONCRETE,ENEMY,short,resources/sound/trials/audio_stim_human67.mp3,60fd2a117181bc22b970997d,20,Female,Right handed,2021-07-26_21h04.27.447,MA Experiment 2,2021.1.2,Win32,82.46062505,1,14,48,10,1,,,,,
0.7451,response_1,,CRYSTAL,MOLECULE,,,,,,VIOLET,LUBRICANT,short,resources/sound/catchTrials/audio_control_human_project07.mp3,60fd2a117181bc22b970997d,20,Female,Right handed,2021-07-26_21h04.27.447,MA Experiment 2,2021.1.2,Win32,82.46062505,,,,,,0,28,28,12,1
0.7235,response_2,longValid,ACRE,ANTIQUE,,,,,,MINER,EMERALD,short,resources/sound/trials/audio_stim_human6.mp3,60fd2a117181bc22b970997d,20,Female,Right handed,2021-07-26_21h04.27.447,MA Experiment 2,2021.1.2,Win32,82.46062505,1,15,49,13,1,,,,,
1.3292,response_2,longFoil,MEDICINE,MESSENGER,,,,,,MARBLE,CUSTOMER,short,resources/sound/trials/audio_stim_comp65.mp3,60fd2a117181bc22b970997d,20,Female,Right handed,2021-07-26_21h04.27.447,MA Experiment 2,2021.1.2,Win32,82.46062505,1,16,50,4,1,,,,,
1.2139,response_1,shortFoil,NOVEL,GYMNASTICS,,,,,,SACRED,GALAXY,long,resources/sound/trials/audio_stim_comp1.mp3,60fd2a117181bc22b970997d,20,Female,Right handed,2021-07-26_21h04.27.447,MA Experiment 2,2021.1.2,Win32,82.46062505,1,17,51,24,1,,,,,
0.8942,response_2,shortValid,JURY,PROFESSOR,,,,,,WORKER,VISITOR,short,resources/sound/trials/audio_stim_comp17.mp3,60fd2a117181bc22b970997d,20,Female,Right handed,2021-07-26_21h04.27.447,MA Experiment 2,2021.1.2,Win32,82.46062505,1,18,52,6,1,,,,,
1.1464,response_2,,MORNING,FACTORY,,,,,,IRIS,VIOLIN,long,resources/sound/catchTrials/audio_control_human_project12.mp3,60fd2a117181bc22b970997d,20,Female,Right handed,2021-07-26_21h04.27.447,MA Experiment 2,2021.1.2,Win32,82.46062505,,,,,,0,19,19,24,1
0.8594,response_1,shortFoil,FOREARM,INTERVIEW,,,,,,PARTY,SANCTUARY,short,resources/sound/trials/audio_stim_human50.mp3,60fd2a117181bc22b970997d,20,Female,Right handed,2021-07-26_21h04.27.447,MA Experiment 2,2021.1.2,Win32,82.46062505,1,19,53,14,1,,,,,
1.4644,response_2,longFoil,RABBI,UMBRELLA,,,,,,HARDWARE,OVERCOAT,long,resources/sound/trials/audio_stim_human35.mp3,60fd2a117181bc22b970997d,20,Female,Right handed,2021-07-26_21h04.27.447,MA Experiment 2,2021.1.2,Win32,82.46062505,1,20,54,25,1,,,,,
1.7227,response_2,longFoil,PRINCESS,SPECIALIST,,,,,,ATHLETE,IVORY,short,resources/sound/trials/audio_stim_comp57.mp3,60fd2a117181bc22b970997d,20,Female,Right handed,2021-07-26_21h04.27.447,MA Experiment 2,2021.1.2,Win32,82.46062505,1,21,55,5,1,,,,,
0.9266,response_2,shortFoil,SCOOTER,FURNITURE,,,,,,MINER,EMERALD,long,resources/sound/trials/audio_stim_human6.mp3,60fd2a117181bc22b970997d,20,Female,Right handed,2021-07-26_21h04.27.447,MA Experiment 2,2021.1.2,Win32,82.46062505,1,22,56,30,1,,,,,
1.1119,response_1,,DIVING,ATHLETICS,,,,,,VIOLET,LUBRICANT,short,resources/sound/catchTrials/audio_control_comp_project07.mp3,60fd2a117181bc22b970997d,20,Female,Right handed,2021-07-26_21h04.27.447,MA Experiment 2,2021.1.2,Win32,82.46062505,,,,,,0,8,8,3,1
1.5768,response_2,shortFoil,WINDOW,ATTENDANT,,,,,,DRIZZLE,CARDINAL,long,resources/sound/trials/audio_stim_comp69.mp3,60fd2a117181bc22b970997d,20,Female,Right handed,2021-07-26_21h04.27.447,MA Experiment 2,2021.1.2,Win32,82.46062505,1,23,57,17,1,,,,,
0.907,response_2,shortValid,KERNEL,HEROIN,,,,,,ROBBER,RATTLESNAKE,short,resources/sound/trials/audio_stim_human64.mp3,60fd2a117181bc22b970997d,20,Female,Right handed,2021-07-26_21h04.27.447,MA Experiment 2,2021.1.2,Win32,82.46062505,1,24,58,15,1,,,,,
1.3935,response_2,longFoil,LOBSTER,LEMONADE,,,,,,ATHLETE,IVORY,long,resources/sound/trials/audio_stim_comp57.mp3,60fd2a117181bc22b970997d,20,Female,Right handed,2021-07-26_21h04.27.447,MA Experiment 2,2021.1.2,Win32,82.46062505,1,25,59,22,1,,,,,
1.2352,response_1,shortValid,FAIRY,TANGERINE,,,,,,DRIZZLE,CARDINAL,short,resources/sound/trials/audio_stim_comp69.mp3,60fd2a117181bc22b970997d,20,Female,Right handed,2021-07-26_21h04.27.447,MA Experiment 2,2021.1.2,Win32,82.46062505,1,26,60,0,1,,,,,
1.0794,response_2,,PATIENT,POLICEMAN,,,,,,CORNER,ENGINEER,short,resources/sound/catchTrials/audio_control_human_project14.mp3,60fd2a117181bc22b970997d,20,Female,Right handed,2021-07-26_21h04.27.447,MA Experiment 2,2021.1.2,Win32,82.46062505,,,,,,0,2,2,10,1
1.1942,response_2,shortFoil,DUEL,ICICLE,,,,,,RUBBER,PROPERTY,long,resources/sound/trials/audio_stim_human0.mp3,60fd2a117181bc22b970997d,20,Female,Right handed,2021-07-26_21h04.27.447,MA Experiment 2,2021.1.2,Win32,82.46062505,1,27,61,29,1,,,,,
0.9616,response_1,longFoil,BISHOP,HOSPITAL,,,,,,SACRED,GALAXY,short,resources/sound/trials/audio_stim_comp1.mp3,60fd2a117181bc22b970997d,20,Female,Right handed,2021-07-26_21h04.27.447,MA Experiment 2,2021.1.2,Win32,82.46062505,1,28,62,7,1,,,,,
0.738,response_1,longValid,MURAL,AVENUE,,,,,,MINER,EMERALD,long,resources/sound/trials/audio_stim_comp6.mp3,60fd2a117181bc22b970997d,20,Female,Right handed,2021-07-26_21h04.27.447,MA Experiment 2,2021.1.2,Win32,82.46062505,1,29,63,18,1,,,,,
0.921,response_1,shortValid,TORTURE,ACROBAT,,,,,,BRAINSTORM,GREEN NEEDLE,short,resources/sound/trials/audio_stim_original.mp3,60fd2a117181bc22b970997d,20,Female,Right handed,2021-07-26_21h04.27.447,MA Experiment 2,2021.1.2,Win32,82.46062505,1,30,64,16,1,,,,,
1.3052,response_1,,BEETLE,NEWSPAPER,,,,,,VIOLET,LUBRICANT,long,resources/sound/catchTrials/audio_control_comp_project07.mp3,60fd2a117181bc22b970997d,20,Female,Right handed,2021-07-26_21h04.27.447,MA Experiment 2,2021.1.2,Win32,82.46062505,,,,,,0,11,11,19,1
1.0932,response_2,shortFoil,SOFA,RETAILER,,,,,,RUBBER,PROPERTY,short,resources/sound/trials/audio_stim_human0.mp3,60fd2a117181bc22b970997d,20,Female,Right handed,2021-07-26_21h04.27.447,MA Experiment 2,2021.1.2,Win32,82.46062505,1,31,65,12,1,,,,,
0.908,response_2,longFoil,DANCER,DIAMOND,,,,,,PARTY,SANCTUARY,long,resources/sound/trials/audio_stim_human50.mp3,60fd2a117181bc22b970997d,20,Female,Right handed,2021-07-26_21h04.27.447,MA Experiment 2,2021.1.2,Win32,82.46062505,1,32,66,31,1,,,,,
0.8102,response_1,longFoil,INCOME,MOSQUITO,,,,,,MINER,EMERALD,short,resources/sound/trials/audio_stim_comp6.mp3,60fd2a117181bc22b970997d,20,Female,Right handed,2021-07-26_21h04.27.447,MA Experiment 2,2021.1.2,Win32,82.46062505,1,33,67,1,1,,,,,
0.8539,response_1,longFoil,PIPING,MICROSCOPE,,,,,,BRAINSTORM,GREEN NEEDLE,long,resources/sound/trials/audio_stim_original.mp3,60fd2a117181bc22b970997d,20,Female,Right handed,2021-07-26_21h04.27.447,MA Experiment 2,2021.1.2,Win32,82.46062505,2,0,68,33,1,,,,,
0.8293,response_1,longFoil,RUSTY,GOVERNMENT,,,,,,WORKER,VISITOR,short,resources/sound/trials/audio_stim_comp17.mp3,60fd2a117181bc22b970997d,20,Female,Right handed,2021-07-26_21h04.27.447,MA Experiment 2,2021.1.2,Win32,82.46062505,2,1,69,6,1,,,,,
0.9361,response_1,shortFoil,PERSON,PROJECTOR,,,,,,ATHLETE,IVORY,short,resources/sound/trials/audio_stim_comp57.mp3,60fd2a117181bc22b970997d,20,Female,Right handed,2021-07-26_21h04.27.447,MA Experiment 2,2021.1.2,Win32,82.46062505,2,2,70,5,1,,,,,
1.3489,response_2,,FERTILE,MONUMENT,,,,,,BORDER,ALGEBRA,short,resources/sound/catchTrials/audio_control_comp_project00.mp3,60fd2a117181bc22b970997d,20,Female,Right handed,2021-07-26_21h04.27.447,MA Experiment 2,2021.1.2,Win32,82.46062505,,,,,,0,5,5,0,1
1.2804,response_1,shortValid,PIANO,FAMILY,,,,,,PARTY,SANCTUARY,short,resources/sound/trials/audio_stim_human50.mp3,60fd2a117181bc22b970997d,20,Female,Right handed,2021-07-26_21h04.27.447,MA Experiment 2,2021.1.2,Win32,82.46062505,2,3,71,14,1,,,,,
1.2395,response_2,longFoil,TRAITOR,MOLECULE,,,,,,SACRED,GALAXY,long,resources/sound/trials/audio_stim_comp1.mp3,60fd2a117181bc22b970997d,20,Female,Right handed,2021-07-26_21h04.27.447,MA Experiment 2,2021.1.2,Win32,82.46062505,2,4,72,24,1,,,,,
0.9213,response_1,shortValid,MUSCLE,CLARINET,,,,,,MARBLE,CUSTOMER,short,resources/sound/trials/audio_stim_comp65.mp3,60fd2a117181bc22b970997d,20,Female,Right handed,2021-07-26_21h04.27.447,MA Experiment 2,2021.1.2,Win32,82.46062505,2,5,73,4,1,,,,,
1.3847,response_1,longValid,WALRUS,MESSENGER,,,,,,DAYLIGHT,MATERIAL,long,resources/sound/trials/audio_stim_human42.mp3,60fd2a117181bc22b970997d,20,Female,Right handed,2021-07-26_21h04.27.447,MA Experiment 2,2021.1.2,Win32,82.46062505,2,6,74,26,1,,,,,
1.398,response_2,,WRITING,CHOCOLATE,,,,,,SPINACH,APRICOT,short,resources/sound/catchTrials/audio_control_comp_project18.mp3,60fd2a117181bc22b970997d,20,Female,Right handed,2021-07-26_21h04.27.447,MA Experiment 2,2021.1.2,Win32,82.46062505,,,,,,0,18,18,5,1
0.844,response_2,shortValid,BEETLE,CONVENTION,,,,,,HARDWARE,OVERCOAT,long,resources/sound/trials/audio_stim_human35.mp3,60fd2a117181bc22b970997d,20,Female,Right handed,2021-07-26_21h04.27.447,MA Experiment 2,2021.1.2,Win32,82.46062505,2,7,75,25,1,,,,,
0.9024,response_2,shortFoil,EARTHWORM,AMBULANCE,,,,,,ROBBER,RATTLESNAKE,long,resources/sound/trials/audio_stim_human64.mp3,60fd2a117181bc22b970997d,20,Female,Right handed,2021-07-26_21h04.27.447,MA Experiment 2,2021.1.2,Win32,82.46062505,2,8,76,32,1,,,,,
0.7363,response_2,shortValid,STOCKING,CAPITAL,,,,,,MINER,EMERALD,long,resources/sound/trials/audio_stim_comp6.mp3,60fd2a117181bc22b970997d,20,Female,Right handed,2021-07-26_21h04.27.447,MA Experiment 2,2021.1.2,Win32,82.46062505,2,9,77,18,1,,,,,
0.6002,response_2,longValid,NOVEL,DESTROYER,,,,,,ROBBER,RATTLESNAKE,short,resources/sound/trials/audio_stim_human64.mp3,60fd2a117181bc22b970997d,20,Female,Right handed,2021-07-26_21h04.27.447,MA Experiment 2,2021.1.2,Win32,82.46062505,2,10,78,15,1,,,,,
0.4121,response_2,,UNCLE,SPECIALIST,,,,,,HOBBY,COLONY,short,resources/sound/catchTrials/audio_control_comp_project04.mp3,60fd2a117181bc22b970997d,20,Female,Right handed,2021-07-26_21h04.27.447,MA Experiment 2,2021.1.2,Win32,82.46062505,,,,,,0,23,23,2,1
0.3901,response_1,longFoil,SULPHUR,OXYGEN,,,,,,DRIZZLE,CARDINAL,long,resources/sound/trials/audio_stim_comp69.mp3,60fd2a117181bc22b970997d,20,Female,Right handed,2021-07-26_21h04.27.447,MA Experiment 2,2021.1.2,Win32,82.46062505,2,11,79,17,1,,,,,
0.5615,response_2,longValid,FEVER,ORNAMENT,,,,,,RECEIPT,LIMOUSINE,short,resources/sound/trials/audio_stim_comp40.mp3,60fd2a117181bc22b970997d,20,Female,Right handed,2021-07-26_21h04.27.447,MA Experiment 2,2021.1.2,Win32,82.46062505,2,12,80,2,1,,,,,
0.5435,response_1,shortFoil,DIAL,CITIZEN,,,,,,WHISTLE,TREASURER,long,resources/sound/trials/audio_stim_comp12.mp3,60fd2a117181bc22b970997d,20,Female,Right handed,2021-07-26_21h04.27.447,MA Experiment 2,2021.1.2,Win32,82.46062505,2,13,81,20,1,,,,,
1.0284,response_1,shortFoil,MISTRESS,HOSPITAL,,,,,,DAYLIGHT,MATERIAL,short,resources/sound/trials/audio_stim_human42.mp3,60fd2a117181bc22b970997d,20,Female,Right handed,2021-07-26_21h04.27.447,MA Experiment 2,2021.1.2,Win32,82.46062505,2,14,82,9,1,,,,,
0.9751,response_1,,SHOULDER,BEVERAGE,,,,,,VIOLET,LUBRICANT,long,resources/sound/catchTrials/audio_control_human_project07.mp3,60fd2a117181bc22b970997d,20,Female,Right handed,2021-07-26_21h04.27.447,MA Experiment 2,2021.1.2,Win32,82.46062505,,,,,,0,0,0,28,1
1.0745,response_1,shortValid,NURSERY,INJURY,,,,,,MARBLE,CUSTOMER,long,resources/sound/trials/audio_stim_comp65.mp3,60fd2a117181bc22b970997d,20,Female,Right handed,2021-07-26_21h04.27.447,MA Experiment 2,2021.1.2,Win32,82.46062505,2,15,83,21,1,,,,,
1.2309,response_1,shortFoil,DECOY,NEIGHBOURHOOD,,,,,,HARDWARE,OVERCOAT,short,resources/sound/trials/audio_stim_human35.mp3,60fd2a117181bc22b970997d,20,Female,Right handed,2021-07-26_21h04.27.447,MA Experiment 2,2021.1.2,Win32,82.46062505,2,16,84,8,1,,,,,
0.6846,response_1,shortFoil,JURY,HURRICANE,,,,,,WHISTLE,TREASURER,short,resources/sound/trials/audio_stim_comp12.mp3,60fd2a117181bc22b970997d,20,Female,Right handed,2021-07-26_21h04.27.447,MA Experiment 2,2021.1.2,Win32,82.46062505,2,17,85,3,1,,,,,
0.9015,response_1,longValid,WIRE,VINEGAR,,,,,,PAINTER,VEHICLE,short,resources/sound/trials/audio_stim_human47.mp3,60fd2a117181bc22b970997d,20,Female,Right handed,2021-07-26_21h04.27.447,MA Experiment 2,2021.1.2,Win32,82.46062505,2,18,86,11,1,,,,,
0.7262,response_2,,GIRDLE,POTATO,,,,,,BORDER,ALGEBRA,long,resources/sound/catchTrials/audio_control_comp_project00.mp3,60fd2a117181bc22b970997d,20,Female,Right handed,2021-07-26_21h04.27.447,MA Experiment 2,2021.1.2,Win32,82.46062505,,,,,,0,22,22,16,1
0.8115,response_1,shortValid,CEREAL,DIAMOND,,,,,,PAINTER,VEHICLE,long,resources/sound/trials/audio_stim_human47.mp3,60fd2a117181bc22b970997d,20,Female,Right handed,2021-07-26_21h04.27.447,MA Experiment 2,2021.1.2,Win32,82.46062505,2,19,87,28,1,,,,,
0.9062,response_1,shortFoil,TEMPLE,POLICEMAN,,,,,,MINER,EMERALD,short,resources/sound/trials/audio_stim_human6.mp3,60fd2a117181bc22b970997d,20,Female,Right handed,2021-07-26_21h04.27.447,MA Experiment 2,2021.1.2,Win32,82.46062505,2,20,88,13,1,,,,,
1.3142,response_2,shortFoil,KENNEL,ADMIRAL,,,,,,CONCRETE,ENEMY,long,resources/sound/trials/audio_stim_human67.mp3,60fd2a117181bc22b970997d,20,Female,Right handed,2021-07-26_21h04.27.447,MA Experiment 2,2021.1.2,Win32,82.46062505,2,21,89,27,1,,,,,
0.8923,response_1,longValid,FAIRY,HONEYMOON,,,,,,RUBBER,PROPERTY,short,resources/sound/trials/audio_stim_human0.mp3,60fd2a117181bc22b970997d,20,Female,Right handed,2021-07-26_21h04.27.447,MA Experiment 2,2021.1.2,Win32,82.46062505,2,22,90,12,1,,,,,
0.6377,response_2,,POLO,CABINET,,,,,,ICY,JITTERBUG,long,resources/sound/catchTrials/audio_control_comp_project08.mp3,60fd2a117181bc22b970997d,20,Female,Right handed,2021-07-26_21h04.27.447,MA Experiment 2,2021.1.2,Win32,82.46062505,,,,,,0,1,1,23,1
0.825,response_2,longValid,GRADUATE,HEROIN,,,,,,BRAINSTORM,GREEN NEEDLE,short,resources/sound/trials/audio_stim_original.mp3,60fd2a117181bc22b970997d,20,Female,Right handed,2021-07-26_21h04.27.447,MA Experiment 2,2021.1.2,Win32,82.46062505,2,23,91,16,1,,,,,
1.412,response_2,longValid,SADDLE,CORRIDOR,,,,,,RECEIPT,LIMOUSINE,long,resources/sound/trials/audio_stim_comp40.mp3,60fd2a117181bc22b970997d,20,Female,Right handed,2021-07-26_21h04.27.447,MA Experiment 2,2021.1.2,Win32,82.46062505,2,24,92,19,1,,,,,
0.7744,response_2,shortValid,INCOME,BUTTERFLY,,,,,,WORKER,VISITOR,long,resources/sound/trials/audio_stim_comp17.mp3,60fd2a117181bc22b970997d,20,Female,Right handed,2021-07-26_21h04.27.447,MA Experiment 2,2021.1.2,Win32,82.46062505,2,25,93,23,1,,,,,
1.5523,response_1,longValid,WINDOW,MOSQUITO,,,,,,RUBBER,PROPERTY,long,resources/sound/trials/audio_stim_human0.mp3,60fd2a117181bc22b970997d,20,Female,Right handed,2021-07-26_21h04.27.447,MA Experiment 2,2021.1.2,Win32,82.46062505,2,26,94,29,1,,,,,
0.5649,response_1,,DIVING,ANTIQUE,,,,,,POISON,REVOLVER,long,resources/sound/catchTrials/audio_control_human_project01.mp3,60fd2a117181bc22b970997d,20,Female,Right handed,2021-07-26_21h04.27.447,MA Experiment 2,2021.1.2,Win32,82.46062505,,,,,,0,10,10,25,1
0.5977,response_2,shortFoil,MOONLIGHT,RETAILER,,,,,,MINER,EMERALD,short,resources/sound/trials/audio_stim_comp6.mp3,60fd2a117181bc22b970997d,20,Female,Right handed,2021-07-26_21h04.27.447,MA Experiment 2,2021.1.2,Win32,82.46062505,2,27,95,1,1,,,,,
0.44,response_1,shortFoil,SODA,OPENING,,,,,,DRIZZLE,CARDINAL,short,resources/sound/trials/audio_stim_comp69.mp3,60fd2a117181bc22b970997d,20,Female,Right handed,2021-07-26_21h04.27.447,MA Experiment 2,2021.1.2,Win32,82.46062505,2,28,96,0,1,,,,,
1.0033,response_1,shortValid,STATION,LEMONADE,,,,,,MINER,EMERALD,long,resources/sound/trials/audio_stim_human6.mp3,60fd2a117181bc22b970997d,20,Female,Right handed,2021-07-26_21h04.27.447,MA Experiment 2,2021.1.2,Win32,82.46062505,2,29,97,30,1,,,,,
0.4944,response_1,longValid,TWEEZER,SAXOPHONE,,,,,,ATHLETE,IVORY,long,resources/sound/trials/audio_stim_comp57.mp3,60fd2a117181bc22b970997d,20,Female,Right handed,2021-07-26_21h04.27.447,MA Experiment 2,2021.1.2,Win32,82.46062505,2,30,98,22,1,,,,,
1.1362,response_1,,NATIVE,ALCOHOL,,,,,,POISON,REVOLVER,short,resources/sound/catchTrials/audio_control_human_project01.mp3,60fd2a117181bc22b970997d,20,Female,Right handed,2021-07-26_21h04.27.447,MA Experiment 2,2021.1.2,Win32,82.46062505,,,,,,0,27,27,9,1
1.5977,response_1,shortFoil,EVENING,MERCURY,,,,,,CONCRETE,ENEMY,short,resources/sound/trials/audio_stim_human67.mp3,60fd2a117181bc22b970997d,20,Female,Right handed,2021-07-26_21h04.27.447,MA Experiment 2,2021.1.2,Win32,82.46062505,2,31,99,10,1,,,,,
1.1509,response_1,longValid,HAMSTER,HEADQUARTERS,,,,,,SACRED,GALAXY,short,resources/sound/trials/audio_stim_comp1.mp3,60fd2a117181bc22b970997d,20,Female,Right handed,2021-07-26_21h04.27.447,MA Experiment 2,2021.1.2,Win32,82.46062505,2,32,100,7,1,,,,,
0.7251,response_1,longValid,CRYSTAL,MINISTER,,,,,,PARTY,SANCTUARY,long,resources/sound/trials/audio_stim_human50.mp3,60fd2a117181bc22b970997d,20,Female,Right handed,2021-07-26_21h04.27.447,MA Experiment 2,2021.1.2,Win32,82.46062505,2,33,101,31,1,,,,,
0.9002,response_2,longFoil,CURFEW,PROFESSOR,,,,,,BRAINSTORM,GREEN NEEDLE,short,resources/sound/trials/audio_stim_original.mp3,60fd2a117181bc22b970997d,20,Female,Right handed,2021-07-26_21h04.27.447,MA Experiment 2,2021.1.2,Win32,82.46062505,3,0,102,16,1,,,,,
0.7298,response_1,longValid,VILLAGE,FISHERMAN,,,,,,CONCRETE,ENEMY,short,resources/sound/trials/audio_stim_human67.mp3,60fd2a117181bc22b970997d,20,Female,Right handed,2021-07-26_21h04.27.447,MA Experiment 2,2021.1.2,Win32,82.46062505,3,1,103,10,1,,,,,
1.1667,response_1,shortFoil,NAPKIN,GYMNASTICS,,,,,,RECEIPT,LIMOUSINE,long,resources/sound/trials/audio_stim_comp40.mp3,60fd2a117181bc22b970997d,20,Female,Right handed,2021-07-26_21h04.27.447,MA Experiment 2,2021.1.2,Win32,82.46062505,3,2,104,19,1,,,,,
0.982,response_2,,PICTURE,ATHLETICS,,,,,,NAVY,RECTANGLE,long,resources/sound/catchTrials/audio_control_comp_project06.mp3,60fd2a117181bc22b970997d,20,Female,Right handed,2021-07-26_21h04.27.447,MA Experiment 2,2021.1.2,Win32,82.46062505,,,,,,0,3,3,22,1
0.7751,response_1,longFoil,VAPOUR,ENVELOPE,,,,,,PARTY,SANCTUARY,short,resources/sound/trials/audio_stim_human50.mp3,60fd2a117181bc22b970997d,20,Female,Right handed,2021-07-26_21h04.27.447,MA Experiment 2,2021.1.2,Win32,82.46062505,3,3,105,14,1,,,,,
1.1028,response_1,shortFoil,LEADER,POLIO,,,,,,ATHLETE,IVORY,long,resources/sound/trials/audio_stim_comp57.mp3,60fd2a117181bc22b970997d,20,Female,Right handed,2021-07-26_21h04.27.447,MA Experiment 2,2021.1.2,Win32,82.46062505,3,4,106,22,1,,,,,
1.2137,response_2,longValid,KETTLE,INTERVIEW,,,,,,ROBBER,RATTLESNAKE,long,resources/sound/trials/audio_stim_human64.mp3,60fd2a117181bc22b970997d,20,Female,Right handed,2021-07-26_21h04.27.447,MA Experiment 2,2021.1.2,Win32,82.46062505,3,5,107,32,1,,,,,
1.1185,response_2,shortFoil,SINGER,JANITOR,,,,,,HARDWARE,OVERCOAT,long,resources/sound/trials/audio_stim_human35.mp3,60fd2a117181bc22b970997d,20,Female,Right handed,2021-07-26_21h04.27.447,MA Experiment 2,2021.1.2,Win32,82.46062505,3,6,108,25,1,,,,,
0.8273,response_2,,NECKLACE,ACROBAT,,,,,,IRIS,VIOLIN,short,resources/sound/catchTrials/audio_control_human_project12.mp3,60fd2a117181bc22b970997d,20,Female,Right handed,2021-07-26_21h04.27.447,MA Experiment 2,2021.1.2,Win32,82.46062505,,,,,,0,30,30,8,1
1.0266,response_2,shortFoil,KERNEL,INSTRUCTOR,,,,,,MINER,EMERALD,long,resources/sound/trials/audio_stim_comp6.mp3,60fd2a117181bc22b970997d,20,Female,Right handed,2021-07-26_21h04.27.447,MA Experiment 2,2021.1.2,Win32,82.46062505,3,7,109,18,1,,,,,
1.1816,response_2,longValid,DUEL,MINERAL,,,,,,PAINTER,VEHICLE,long,resources/sound/trials/audio_stim_human47.mp3,60fd2a117181bc22b970997d,20,Female,Right handed,2021-07-26_21h04.27.447,MA Experiment 2,2021.1.2,Win32,82.46062505,3,8,110,28,1,,,,,
0.6198,response_1,longFoil,CIGAR,EMULSION,,,,,,MARBLE,CUSTOMER,long,resources/sound/trials/audio_stim_comp65.mp3,60fd2a117181bc22b970997d,20,Female,Right handed,2021-07-26_21h04.27.447,MA Experiment 2,2021.1.2,Win32,82.46062505,3,9,111,21,1,,,,,
1.2625,response_1,shortValid,LOBSTER,GORILLA,,,,,,RUBBER,PROPERTY,short,resources/sound/trials/audio_stim_human0.mp3,60fd2a117181bc22b970997d,20,Female,Right handed,2021-07-26_21h04.27.447,MA Experiment 2,2021.1.2,Win32,82.46062505,3,10,112,12,1,,,,,
1.1056,response_2,,OLIVE,MEDICINE,,,,,,JOURNAL,ROBBERY,short,resources/sound/catchTrials/audio_control_human_project02.mp3,60fd2a117181bc22b970997d,20,Female,Right handed,2021-07-26_21h04.27.447,MA Experiment 2,2021.1.2,Win32,82.46062505,,,,,,0,25,25,13,1
1.1069,response_1,longFoil,TUMBLE,COMMITTEE,,,,,,DAYLIGHT,MATERIAL,long,resources/sound/trials/audio_stim_human42.mp3,60fd2a117181bc22b970997d,20,Female,Right handed,2021-07-26_21h04.27.447,MA Experiment 2,2021.1.2,Win32,82.46062505,3,11,113,26,1,,,,,
0.686,response_1,longFoil,BUTTER,FURNITURE,,,,,,CONCRETE,ENEMY,long,resources/sound/trials/audio_stim_human67.mp3,60fd2a117181bc22b970997d,20,Female,Right handed,2021-07-26_21h04.27.447,MA Experiment 2,2021.1.2,Win32,82.46062505,3,12,114,27,1,,,,,
1.1771,response_1,longFoil,MURAL,TEMPERATURE,,,,,,WORKER,VISITOR,long,resources/sound/trials/audio_stim_comp17.mp3,60fd2a117181bc22b970997d,20,Female,Right handed,2021-07-26_21h04.27.447,MA Experiment 2,2021.1.2,Win32,82.46062505,3,13,115,23,1,,,,,
1.0407,response_1,shortValid,WAFER,MECHANIC,,,,,,DAYLIGHT,MATERIAL,short,resources/sound/trials/audio_stim_human42.mp3,60fd2a117181bc22b970997d,20,Female,Right handed,2021-07-26_21h04.27.447,MA Experiment 2,2021.1.2,Win32,82.46062505,3,14,116,9,1,,,,,
0.6776,response_2,,SHEEPSKIN,CIGARETTE,,,,,,SPINACH,APRICOT,long,resources/sound/catchTrials/audio_control_comp_project18.mp3,60fd2a117181bc22b970997d,20,Female,Right handed,2021-07-26_21h04.27.447,MA Experiment 2,2021.1.2,Win32,82.46062505,,,,,,0,14,14,21,1
0.9358,response_2,shortValid,PODIUM,DISSECTION,,,,,,PARTY,SANCTUARY,long,resources/sound/trials/audio_stim_human50.mp3,60fd2a117181bc22b970997d,20,Female,Right handed,2021-07-26_21h04.27.447,MA Experiment 2,2021.1.2,Win32,82.46062505,3,15,117,31,1,,,,,
0.6184,response_1,longValid,OFFICE,SETTLEMENT,,,,,,WHISTLE,TREASURER,short,resources/sound/trials/audio_stim_comp12.mp3,60fd2a117181bc22b970997d,20,Female,Right handed,2021-07-26_21h04.27.447,MA Experiment 2,2021.1.2,Win32,82.46062505,3,16,118,3,1,,,,,
0.5757,response_2,longFoil,INVOICE,AMMONIA,,,,,,HARDWARE,OVERCOAT,short,resources/sound/trials/audio_stim_human35.mp3,60fd2a117181bc22b970997d,20,Female,Right handed,2021-07-26_21h04.27.447,MA Experiment 2,2021.1.2,Win32,82.46062505,3,17,119,8,1,,,,,
0.4957,response_1,shortFoil,HARBOUR,APPLIANCE,,,,,,WORKER,VISITOR,short,resources/sound/trials/audio_stim_comp17.mp3,60fd2a117181bc22b970997d,20,Female,Right handed,2021-07-26_21h04.27.447,MA Experiment 2,2021.1.2,Win32,82.46062505,3,18,120,6,1,,,,,
1.1094,response_2,,SOFA,MICROSCOPE,,,,,,IRIS,VIOLIN,short,resources/sound/catchTrials/audio_control_comp_project12.mp3,60fd2a117181bc22b970997d,20,Female,Right handed,2021-07-26_21h04.27.447,MA Experiment 2,2021.1.2,Win32,82.46062505,,,,,,0,9,9,4,1
0.754,response_2,shortValid,LIGHTNING,AVENUE,,,,,,SACRED,GALAXY,long,resources/sound/trials/audio_stim_comp1.mp3,60fd2a117181bc22b970997d,20,Female,Right handed,2021-07-26_21h04.27.447,MA Experiment 2,2021.1.2,Win32,82.46062505,3,19,121,24,1,,,,,
1.0718,response_1,longFoil,BISHOP,GRASSHOPPER,,,,,,DRIZZLE,CARDINAL,short,resources/sound/trials/audio_stim_comp69.mp3,60fd2a117181bc22b970997d,20,Female,Right handed,2021-07-26_21h04.27.447,MA Experiment 2,2021.1.2,Win32,82.46062505,3,20,122,0,1,,,,,
1.3094,response_1,shortValid,DOORWAY,HANDKERCHIEF,,,,,,BRAINSTORM,GREEN NEEDLE,long,resources/sound/trials/audio_stim_original.mp3,60fd2a117181bc22b970997d,20,Female,Right handed,2021-07-26_21h04.27.447,MA Experiment 2,2021.1.2,Win32,82.46062505,3,21,123,33,1,,,,,
0.6579,response_1,longValid,PIPING,INSTRUMENT,,,,,,MARBLE,CUSTOMER,short,resources/sound/trials/audio_stim_comp65.mp3,60fd2a117181bc22b970997d,20,Female,Right handed,2021-07-26_21h04.27.447,MA Experiment 2,2021.1.2,Win32,82.46062505,3,22,124,4,1,,,,,
1.0734,response_1,,PATIENT,UMBRELLA,,,,,,JUGGLER,DANDELION,short,resources/sound/catchTrials/audio_control_human_project09.mp3,60fd2a117181bc22b970997d,20,Female,Right handed,2021-07-26_21h04.27.447,MA Experiment 2,2021.1.2,Win32,82.46062505,,,,,,0,21,21,15,1
0.8849,response_2,shortValid,HAMMER,ALPHABET,,,,,,RUBBER,PROPERTY,long,resources/sound/trials/audio_stim_human0.mp3,60fd2a117181bc22b970997d,20,Female,Right handed,2021-07-26_21h04.27.447,MA Experiment 2,2021.1.2,Win32,82.46062505,3,23,125,29,1,,,,,
0.6689,response_1,longValid,NEIGHBOUR,PROPELLER,,,,,,ATHLETE,IVORY,short,resources/sound/trials/audio_stim_comp57.mp3,60fd2a117181bc22b970997d,20,Female,Right handed,2021-07-26_21h04.27.447,MA Experiment 2,2021.1.2,Win32,82.46062505,3,24,126,5,1,,,,,
0.8471,response_2,shortValid,MEASLES,ICICLE,,,,,,MINER,EMERALD,short,resources/sound/trials/audio_stim_comp6.mp3,60fd2a117181bc22b970997d,20,Female,Right handed,2021-07-26_21h04.27.447,MA Experiment 2,2021.1.2,Win32,82.46062505,3,25,127,1,1,,,,,
1.3815,response_2,shortValid,BURNER,CINNAMON,,,,,,DRIZZLE,CARDINAL,long,resources/sound/trials/audio_stim_comp69.mp3,60fd2a117181bc22b970997d,20,Female,Right handed,2021-07-26_21h04.27.447,MA Experiment 2,2021.1.2,Win32,82.46062505,3,26,128,17,1,,,,,
1.2103,response_2,,DWELLER,STRAWBERRY,,,,,,CORNER,ENGINEER,short,resources/sound/catchTrials/audio_control_comp_project14.mp3,60fd2a117181bc22b970997d,20,Female,Right handed,2021-07-26_21h04.27.447,MA Experiment 2,2021.1.2,Win32,82.46062505,,,,,,0,16,16,1,1
0.7844,response_2,shortFoil,VALLEY,GALLERY,,,,,,ROBBER,RATTLESNAKE,short,resources/sound/trials/audio_stim_human64.mp3,60fd2a117181bc22b970997d,20,Female,Right handed,2021-07-26_21h04.27.447,MA Experiment 2,2021.1.2,Win32,82.46062505,3,27,129,15,1,,,,,
1.0008,response_1,shortFoil,DANCER,ABDOMEN,,,,,,SACRED,GALAXY,short,resources/sound/trials/audio_stim_comp1.mp3,60fd2a117181bc22b970997d,20,Female,Right handed,2021-07-26_21h04.27.447,MA Experiment 2,2021.1.2,Win32,82.46062505,3,28,130,7,1,,,,,
0.5557,response_2,shortValid,PRINCESS,INSTITUTE,,,,,,MINER,EMERALD,short,resources/sound/trials/audio_stim_human6.mp3,60fd2a117181bc22b970997d,20,Female,Right handed,2021-07-26_21h04.27.447,MA Experiment 2,2021.1.2,Win32,82.46062505,3,29,131,13,1,,,,,
0.9918,response_1,longValid,BERRY,FIREWOOD,,,,,,WHISTLE,TREASURER,long,resources/sound/trials/audio_stim_comp12.mp3,60fd2a117181bc22b970997d,20,Female,Right handed,2021-07-26_21h04.27.447,MA Experiment 2,2021.1.2,Win32,82.46062505,3,30,132,20,1,,,,,
1.248,response_2,,ACRE,CAMERA,,,,,,JOURNAL,ROBBERY,long,resources/sound/catchTrials/audio_control_human_project02.mp3,60fd2a117181bc22b970997d,20,Female,Right handed,2021-07-26_21h04.27.447,MA Experiment 2,2021.1.2,Win32,82.46062505,,,,,,0,6,6,29,1
1.0008,response_1,longValid,TORTURE,INFECTION,,,,,,MINER,EMERALD,long,resources/sound/trials/audio_stim_human6.mp3,60fd2a117181bc22b970997d,20,Female,Right handed,2021-07-26_21h04.27.447,MA Experiment 2,2021.1.2,Win32,82.46062505,3,31,133,30,1,,,,,
1.1011,response_2,shortFoil,LIQUID,GINGERBREAD,,,,,,RECEIPT,LIMOUSINE,short,resources/sound/trials/audio_stim_comp40.mp3,60fd2a117181bc22b970997d,20,Female,Right handed,2021-07-26_21h04.27.447,MA Experiment 2,2021.1.2,Win32,82.46062505,3,32,134,2,1,,,,,
1.122,response_1,shortFoil,RABBI,FACTORY,,,,,,PAINTER,VEHICLE,short,resources/sound/trials/audio_stim_human47.mp3,60fd2a117181bc22b970997d,20,Female,Right handed,2021-07-26_21h04.27.447,MA Experiment 2,2021.1.2,Win32,82.46062505,3,33,135,11,1,,,,,
