response.time,response,cueTarget,rand_foil_1,rand_foil_2,prac_trials.thisRepN,prac_trials.thisTrialN,prac_trials.thisN,prac_trials.thisIndex,prac_trials.ran,word_1,word_2,cue,file_path,participant,age,gender,handedness,date,expName,psychopyVersion,OS,frameRate,trials.thisRepN,trials.thisTrialN,trials.thisN,trials.thisIndex,trials.ran,catchTrials.thisRepN,catchTrials.thisTrialN,catchTrials.thisN,catchTrials.thisIndex,catchTrials.ran
1.8304,response_1,shortValid,HAMMER,LECTURER,0,0,0,11,1,KETCHUP,GONDOLA,long,resources/sound/prac_trials/practice_cue_human11.mp3,60fd2b38c2980b3c3154306d,18,Female,Right handed,2021-07-27_16h30.41.561,MA Experiment 2,2021.1.2,Win32,60.16847172,,,,,,,,,,
2.3487,response_2,shortValid,LIQUID,FAMILY,0,1,1,9,1,GRUMPY,LABYRINTH,long,resources/sound/prac_trials/practice_cue_human9.mp3,60fd2b38c2980b3c3154306d,18,Female,Right handed,2021-07-27_16h30.41.561,MA Experiment 2,2021.1.2,Win32,60.16847172,,,,,,,,,,
1.9633,response_1,shortValid,ACRE,GORILLA,0,2,2,8,1,DAGGER,EMPHASIS,long,resources/sound/prac_trials/practice_cue8.mp3,60fd2b38c2980b3c3154306d,18,Female,Right handed,2021-07-27_16h30.41.561,MA Experiment 2,2021.1.2,Win32,60.16847172,,,,,,,,,,
1.6947,response_2,longFoil,PIPING,PROPELLER,0,3,3,5,1,NONSENSE,OASIS,short,resources/sound/prac_trials/practice_cue_human5.mp3,60fd2b38c2980b3c3154306d,18,Female,Right handed,2021-07-27_16h30.41.561,MA Experiment 2,2021.1.2,Win32,60.16847172,,,,,,,,,,
1.2107,response_2,longFoil,SHEEPSKIN,UMBRELLA,0,4,4,6,1,VACANT,SALVATION,long,resources/sound/prac_trials/practice_cue6.mp3,60fd2b38c2980b3c3154306d,18,Female,Right handed,2021-07-27_16h30.41.561,MA Experiment 2,2021.1.2,Win32,60.16847172,,,,,,,,,,
1.7793,response_1,longFoil,SINGER,INSTRUCTOR,0,5,5,0,1,AARDVARK,FALLACY,short,resources/sound/prac_trials/practice_cue0.mp3,60fd2b38c2980b3c3154306d,18,Female,Right handed,2021-07-27_16h30.41.561,MA Experiment 2,2021.1.2,Win32,60.16847172,,,,,,,,,,
1.3289,response_2,longFoil,FEVER,GALLERY,0,6,6,7,1,BUCKLE,WALLABY,long,resources/sound/prac_trials/practice_cue_human7.mp3,60fd2b38c2980b3c3154306d,18,Female,Right handed,2021-07-27_16h30.41.561,MA Experiment 2,2021.1.2,Win32,60.16847172,,,,,,,,,,
1.3295,response_1,shortValid,BUTTER,NEWSPAPER,0,7,7,2,1,RECENT,TOBACCO,short,resources/sound/prac_trials/practice_cue2.mp3,60fd2b38c2980b3c3154306d,18,Female,Right handed,2021-07-27_16h30.41.561,MA Experiment 2,2021.1.2,Win32,60.16847172,,,,,,,,,,
1.3788,response_1,shortValid,CURFEW,HONEYMOON,0,8,8,1,1,CABLE,REPUBLIC,short,resources/sound/prac_trials/practice_cue_human1.mp3,60fd2b38c2980b3c3154306d,18,Female,Right handed,2021-07-27_16h30.41.561,MA Experiment 2,2021.1.2,Win32,60.16847172,,,,,,,,,,
1.0449,response_1,shortValid,KETTLE,ANTIQUE,0,9,9,10,1,SAFFRON,JAVELIN,long,resources/sound/prac_trials/practice_cue10.mp3,60fd2b38c2980b3c3154306d,18,Female,Right handed,2021-07-27_16h30.41.561,MA Experiment 2,2021.1.2,Win32,60.16847172,,,,,,,,,,
0.7623,response_2,longValid,PICTURE,TANGERINE,0,10,10,3,1,EAGER,QUALIFY,short,resources/sound/prac_trials/practice_cue_human3.mp3,60fd2b38c2980b3c3154306d,18,Female,Right handed,2021-07-27_16h30.41.561,MA Experiment 2,2021.1.2,Win32,60.16847172,,,,,,,,,,
1.4819,response_2,longValid,DUEL,NEIGHBOURHOOD,0,11,11,4,1,FIZZY,ELECTRIC,short,resources/sound/prac_trials/practice_cue4.mp3,60fd2b38c2980b3c3154306d,18,Female,Right handed,2021-07-27_16h30.41.561,MA Experiment 2,2021.1.2,Win32,60.16847172,,,,,,,,,,
1.2781,response_2,longValid,MORNING,CITIZEN,,,,,,ROBBER,RATTLESNAKE,long,resources/sound/trials/audio_stim_human64.mp3,60fd2b38c2980b3c3154306d,18,Female,Right handed,2021-07-27_16h30.41.561,MA Experiment 2,2021.1.2,Win32,60.16847172,0,0,0,32,1,,,,,
1.1955,response_2,longFoil,DANCER,CABINET,,,,,,HARDWARE,OVERCOAT,short,resources/sound/trials/audio_stim_human35.mp3,60fd2b38c2980b3c3154306d,18,Female,Right handed,2021-07-27_16h30.41.561,MA Experiment 2,2021.1.2,Win32,60.16847172,0,1,1,8,1,,,,,
1.2763,response_1,shortValid,SODA,CORRIDOR,,,,,,PARTY,SANCTUARY,short,resources/sound/trials/audio_stim_human50.mp3,60fd2b38c2980b3c3154306d,18,Female,Right handed,2021-07-27_16h30.41.561,MA Experiment 2,2021.1.2,Win32,60.16847172,0,2,2,14,1,,,,,
1.4775,response_2,,PRINCESS,PROFESSOR,,,,,,SPINACH,APRICOT,long,resources/sound/catchTrials/audio_control_comp_project18.mp3,60fd2b38c2980b3c3154306d,18,Female,Right handed,2021-07-27_16h30.41.561,MA Experiment 2,2021.1.2,Win32,60.16847172,,,,,,0,7,7,21,1
2.9578,response_1,shortFoil,DIVING,DISSECTION,,,,,,WHISTLE,TREASURER,short,resources/sound/trials/audio_stim_comp12.mp3,60fd2b38c2980b3c3154306d,18,Female,Right handed,2021-07-27_16h30.41.561,MA Experiment 2,2021.1.2,Win32,60.16847172,0,3,3,3,1,,,,,
1.2129,response_2,longValid,NATIVE,MESSENGER,,,,,,RUBBER,PROPERTY,long,resources/sound/trials/audio_stim_human0.mp3,60fd2b38c2980b3c3154306d,18,Female,Right handed,2021-07-27_16h30.41.561,MA Experiment 2,2021.1.2,Win32,60.16847172,0,4,4,29,1,,,,,
0.8448,response_1,shortFoil,LIGHTNING,CANDLELIGHT,,,,,,MINER,EMERALD,long,resources/sound/trials/audio_stim_comp6.mp3,60fd2b38c2980b3c3154306d,18,Female,Right handed,2021-07-27_16h30.41.561,MA Experiment 2,2021.1.2,Win32,60.16847172,0,5,5,18,1,,,,,
1.1435,response_2,longFoil,STOCKING,GYMNASTICS,,,,,,HARDWARE,OVERCOAT,long,resources/sound/trials/audio_stim_human35.mp3,60fd2b38c2980b3c3154306d,18,Female,Right handed,2021-07-27_16h30.41.561,MA Experiment 2,2021.1.2,Win32,60.16847172,0,6,6,25,1,,,,,
1.4256,response_2,,MUSCLE,GOVERNMENT,,,,,,CORNER,ENGINEER,long,resources/sound/catchTrials/audio_control_human_project14.mp3,60fd2b38c2980b3c3154306d,18,Female,Right handed,2021-07-27_16h30.41.561,MA Experiment 2,2021.1.2,Win32,60.16847172,,,,,,0,3,3,26,1
0.7488,response_1,shortValid,GRADUATE,BEVERAGE,,,,,,WORKER,VISITOR,short,resources/sound/trials/audio_stim_comp17.mp3,60fd2b38c2980b3c3154306d,18,Female,Right handed,2021-07-27_16h30.41.561,MA Experiment 2,2021.1.2,Win32,60.16847172,0,7,7,6,1,,,,,
1.4462,response_2,longFoil,PIANO,GINGERBREAD,,,,,,SACRED,GALAXY,long,resources/sound/trials/audio_stim_comp1.mp3,60fd2b38c2980b3c3154306d,18,Female,Right handed,2021-07-27_16h30.41.561,MA Experiment 2,2021.1.2,Win32,60.16847172,0,8,8,24,1,,,,,
2.1452,response_1,shortValid,KERNEL,CROCODILE,,,,,,BRAINSTORM,GREEN NEEDLE,long,resources/sound/trials/audio_stim_original.mp3,60fd2b38c2980b3c3154306d,18,Female,Right handed,2021-07-27_16h30.41.561,MA Experiment 2,2021.1.2,Win32,60.16847172,0,9,9,33,1,,,,,
1.3109,response_2,shortFoil,BEETLE,PROJECTOR,,,,,,DRIZZLE,CARDINAL,long,resources/sound/trials/audio_stim_comp69.mp3,60fd2b38c2980b3c3154306d,18,Female,Right handed,2021-07-27_16h30.41.561,MA Experiment 2,2021.1.2,Win32,60.16847172,0,10,10,17,1,,,,,
1.2774,response_2,,HAMSTER,SPECIALIST,,,,,,NAVY,RECTANGLE,long,resources/sound/catchTrials/audio_control_human_project06.mp3,60fd2b38c2980b3c3154306d,18,Female,Right handed,2021-07-27_16h30.41.561,MA Experiment 2,2021.1.2,Win32,60.16847172,,,,,,0,24,24,30,1
1.2766,response_1,shortValid,PERSON,INDUSTRY,,,,,,MARBLE,CUSTOMER,short,resources/sound/trials/audio_stim_comp65.mp3,60fd2b38c2980b3c3154306d,18,Female,Right handed,2021-07-27_16h30.41.561,MA Experiment 2,2021.1.2,Win32,60.16847172,0,11,11,4,1,,,,,
0.6828,response_1,shortValid,WRITING,FURNITURE,,,,,,PAINTER,VEHICLE,long,resources/sound/trials/audio_stim_human47.mp3,60fd2b38c2980b3c3154306d,18,Female,Right handed,2021-07-27_16h30.41.561,MA Experiment 2,2021.1.2,Win32,60.16847172,0,12,12,28,1,,,,,
1.4087,response_1,shortValid,UNCLE,EMULSION,,,,,,MINER,EMERALD,short,resources/sound/trials/audio_stim_comp6.mp3,60fd2b38c2980b3c3154306d,18,Female,Right handed,2021-07-27_16h30.41.561,MA Experiment 2,2021.1.2,Win32,60.16847172,0,13,13,1,1,,,,,
0.7448,response_1,shortFoil,CABIN,OXYGEN,,,,,,CONCRETE,ENEMY,short,resources/sound/trials/audio_stim_human67.mp3,60fd2b38c2980b3c3154306d,18,Female,Right handed,2021-07-27_16h30.41.561,MA Experiment 2,2021.1.2,Win32,60.16847172,0,14,14,10,1,,,,,
1.1747,response_2,,CANTEEN,INFECTION,,,,,,NAVY,RECTANGLE,long,resources/sound/catchTrials/audio_control_comp_project06.mp3,60fd2b38c2980b3c3154306d,18,Female,Right handed,2021-07-27_16h30.41.561,MA Experiment 2,2021.1.2,Win32,60.16847172,,,,,,0,16,16,22,1
1.7606,response_1,longFoil,TRAITOR,VINEGAR,,,,,,CONCRETE,ENEMY,long,resources/sound/trials/audio_stim_human67.mp3,60fd2b38c2980b3c3154306d,18,Female,Right handed,2021-07-27_16h30.41.561,MA Experiment 2,2021.1.2,Win32,60.16847172,0,15,15,27,1,,,,,
1.3773,response_1,shortValid,NURSERY,TEMPERATURE,,,,,,PAINTER,VEHICLE,short,resources/sound/trials/audio_stim_human47.mp3,60fd2b38c2980b3c3154306d,18,Female,Right handed,2021-07-27_16h30.41.561,MA Experiment 2,2021.1.2,Win32,60.16847172,0,16,16,11,1,,,,,
1.1437,response_1,shortValid,CIGAR,JANITOR,,,,,,DAYLIGHT,MATERIAL,short,resources/sound/trials/audio_stim_human42.mp3,60fd2b38c2980b3c3154306d,18,Female,Right handed,2021-07-27_16h30.41.561,MA Experiment 2,2021.1.2,Win32,60.16847172,0,17,17,9,1,,,,,
1.8269,response_1,longFoil,WALRUS,DESTROYER,,,,,,MINER,EMERALD,long,resources/sound/trials/audio_stim_human6.mp3,60fd2b38c2980b3c3154306d,18,Female,Right handed,2021-07-27_16h30.41.561,MA Experiment 2,2021.1.2,Win32,60.16847172,0,18,18,30,1,,,,,
1.342,response_2,,CAPTAIN,CLARINET,,,,,,JOURNAL,ROBBERY,long,resources/sound/catchTrials/audio_control_human_project02.mp3,60fd2b38c2980b3c3154306d,18,Female,Right handed,2021-07-27_16h30.41.561,MA Experiment 2,2021.1.2,Win32,60.16847172,,,,,,0,19,19,29,1
1.4791,response_1,longFoil,BURNER,ASBESTOS,,,,,,ATHLETE,IVORY,long,resources/sound/trials/audio_stim_comp57.mp3,60fd2b38c2980b3c3154306d,18,Female,Right handed,2021-07-27_16h30.41.561,MA Experiment 2,2021.1.2,Win32,60.16847172,0,19,19,22,1,,,,,
1.224,response_1,shortValid,JURY,RETAILER,,,,,,WHISTLE,TREASURER,long,resources/sound/trials/audio_stim_comp12.mp3,60fd2b38c2980b3c3154306d,18,Female,Right handed,2021-07-27_16h30.41.561,MA Experiment 2,2021.1.2,Win32,60.16847172,0,20,20,20,1,,,,,
0.861,response_1,shortFoil,CHIPMUNK,MINISTER,,,,,,DAYLIGHT,MATERIAL,long,resources/sound/trials/audio_stim_human42.mp3,60fd2b38c2980b3c3154306d,18,Female,Right handed,2021-07-27_16h30.41.561,MA Experiment 2,2021.1.2,Win32,60.16847172,0,21,21,26,1,,,,,
1.7109,response_2,longValid,MEDICINE,FACTORY,,,,,,RECEIPT,LIMOUSINE,long,resources/sound/trials/audio_stim_comp40.mp3,60fd2b38c2980b3c3154306d,18,Female,Right handed,2021-07-27_16h30.41.561,MA Experiment 2,2021.1.2,Win32,60.16847172,0,22,22,19,1,,,,,
1.3277,response_2,,LOBSTER,ABDOMEN,,,,,,IRIS,VIOLIN,short,resources/sound/catchTrials/audio_control_comp_project12.mp3,60fd2b38c2980b3c3154306d,18,Female,Right handed,2021-07-27_16h30.41.561,MA Experiment 2,2021.1.2,Win32,60.16847172,,,,,,0,14,14,4,1
1.6316,response_1,shortValid,INCOME,POLIO,,,,,,RUBBER,PROPERTY,short,resources/sound/trials/audio_stim_human0.mp3,60fd2b38c2980b3c3154306d,18,Female,Right handed,2021-07-27_16h30.41.561,MA Experiment 2,2021.1.2,Win32,60.16847172,0,23,23,12,1,,,,,
1.9446,response_1,longValid,PODIUM,LEMONADE,,,,,,MARBLE,CUSTOMER,long,resources/sound/trials/audio_stim_comp65.mp3,60fd2b38c2980b3c3154306d,18,Female,Right handed,2021-07-27_16h30.41.561,MA Experiment 2,2021.1.2,Win32,60.16847172,0,24,24,21,1,,,,,
0.995,response_2,longFoil,FERTILE,SETTLEMENT,,,,,,WORKER,VISITOR,long,resources/sound/trials/audio_stim_comp17.mp3,60fd2b38c2980b3c3154306d,18,Female,Right handed,2021-07-27_16h30.41.561,MA Experiment 2,2021.1.2,Win32,60.16847172,0,25,25,23,1,,,,,
1.4275,response_1,shortFoil,VILLAGE,ATTENDANT,,,,,,ATHLETE,IVORY,short,resources/sound/trials/audio_stim_comp57.mp3,60fd2b38c2980b3c3154306d,18,Female,Right handed,2021-07-27_16h30.41.561,MA Experiment 2,2021.1.2,Win32,60.16847172,0,26,26,5,1,,,,,
1.2775,response_2,,SHOULDER,ENVELOPE,,,,,,IRIS,VIOLIN,short,resources/sound/catchTrials/audio_control_human_project12.mp3,60fd2b38c2980b3c3154306d,18,Female,Right handed,2021-07-27_16h30.41.561,MA Experiment 2,2021.1.2,Win32,60.16847172,,,,,,0,0,0,8,1
1.1961,response_2,shortFoil,LEADER,ALCOHOL,,,,,,SACRED,GALAXY,short,resources/sound/trials/audio_stim_comp1.mp3,60fd2b38c2980b3c3154306d,18,Female,Right handed,2021-07-27_16h30.41.561,MA Experiment 2,2021.1.2,Win32,60.16847172,0,27,27,7,1,,,,,
1.1113,response_2,longValid,SEGMENT,INTERVIEW,,,,,,DRIZZLE,CARDINAL,short,resources/sound/trials/audio_stim_comp69.mp3,60fd2b38c2980b3c3154306d,18,Female,Right handed,2021-07-27_16h30.41.561,MA Experiment 2,2021.1.2,Win32,60.16847172,0,28,28,0,1,,,,,
1.7279,response_1,longFoil,NECKLACE,HURRICANE,,,,,,RECEIPT,LIMOUSINE,short,resources/sound/trials/audio_stim_comp40.mp3,60fd2b38c2980b3c3154306d,18,Female,Right handed,2021-07-27_16h30.41.561,MA Experiment 2,2021.1.2,Win32,60.16847172,0,29,29,2,1,,,,,
1.0109,response_2,shortFoil,VAPOUR,PHYSICIAN,,,,,,ROBBER,RATTLESNAKE,short,resources/sound/trials/audio_stim_human64.mp3,60fd2b38c2980b3c3154306d,18,Female,Right handed,2021-07-27_16h30.41.561,MA Experiment 2,2021.1.2,Win32,60.16847172,0,30,30,15,1,,,,,
2.4602,response_1,,MOONLIGHT,MOLECULE,,,,,,VIOLET,LUBRICANT,short,resources/sound/catchTrials/audio_control_human_project07.mp3,60fd2b38c2980b3c3154306d,18,Female,Right handed,2021-07-27_16h30.41.561,MA Experiment 2,2021.1.2,Win32,60.16847172,,,,,,0,9,9,12,1
1.4435,response_2,longValid,STATION,CHOCOLATE,,,,,,BRAINSTORM,GREEN NEEDLE,short,resources/sound/trials/audio_stim_original.mp3,60fd2b38c2980b3c3154306d,18,Female,Right handed,2021-07-27_16h30.41.561,MA Experiment 2,2021.1.2,Win32,60.16847172,0,31,31,16,1,,,,,
1.514,response_1,shortFoil,DWELLER,PHOTOGRAPH,,,,,,MINER,EMERALD,short,resources/sound/trials/audio_stim_human6.mp3,60fd2b38c2980b3c3154306d,18,Female,Right handed,2021-07-27_16h30.41.561,MA Experiment 2,2021.1.2,Win32,60.16847172,0,32,32,13,1,,,,,
1.161,response_1,shortValid,KENNEL,STRAWBERRY,,,,,,PARTY,SANCTUARY,long,resources/sound/trials/audio_stim_human50.mp3,60fd2b38c2980b3c3154306d,18,Female,Right handed,2021-07-27_16h30.41.561,MA Experiment 2,2021.1.2,Win32,60.16847172,0,33,33,31,1,,,,,
1.1664,response_2,longValid,TEMPLE,HANDKERCHIEF,,,,,,SACRED,GALAXY,long,resources/sound/trials/audio_stim_comp1.mp3,60fd2b38c2980b3c3154306d,18,Female,Right handed,2021-07-27_16h30.41.561,MA Experiment 2,2021.1.2,Win32,60.16847172,1,0,34,24,1,,,,,
1.1778,response_1,shortFoil,NEIGHBOUR,AVENUE,,,,,,ATHLETE,IVORY,long,resources/sound/trials/audio_stim_comp57.mp3,60fd2b38c2980b3c3154306d,18,Female,Right handed,2021-07-27_16h30.41.561,MA Experiment 2,2021.1.2,Win32,60.16847172,1,1,35,22,1,,,,,
1.1129,response_2,longValid,FAIRY,SAXOPHONE,,,,,,PAINTER,VEHICLE,short,resources/sound/trials/audio_stim_human47.mp3,60fd2b38c2980b3c3154306d,18,Female,Right handed,2021-07-27_16h30.41.561,MA Experiment 2,2021.1.2,Win32,60.16847172,1,2,36,11,1,,,,,
1.3767,response_2,,BISHOP,ORNAMENT,,,,,,HOBBY,COLONY,short,resources/sound/catchTrials/audio_control_comp_project04.mp3,60fd2b38c2980b3c3154306d,18,Female,Right handed,2021-07-27_16h30.41.561,MA Experiment 2,2021.1.2,Win32,60.16847172,,,,,,0,5,5,2,1
1.4127,response_2,longValid,FATHER,CAMERA,,,,,,HARDWARE,OVERCOAT,long,resources/sound/trials/audio_stim_human35.mp3,60fd2b38c2980b3c3154306d,18,Female,Right handed,2021-07-27_16h30.41.561,MA Experiment 2,2021.1.2,Win32,60.16847172,1,3,37,25,1,,,,,
1.4271,response_1,shortFoil,HARBOUR,MINERAL,,,,,,WORKER,VISITOR,short,resources/sound/trials/audio_stim_comp17.mp3,60fd2b38c2980b3c3154306d,18,Female,Right handed,2021-07-27_16h30.41.561,MA Experiment 2,2021.1.2,Win32,60.16847172,1,4,38,6,1,,,,,
2.082,response_1,shortValid,DOORWAY,MICROSCOPE,,,,,,CONCRETE,ENEMY,long,resources/sound/trials/audio_stim_human67.mp3,60fd2b38c2980b3c3154306d,18,Female,Right handed,2021-07-27_16h30.41.561,MA Experiment 2,2021.1.2,Win32,60.16847172,1,5,39,27,1,,,,,
0.9273,response_2,longFoil,RUSTY,MONUMENT,,,,,,ROBBER,RATTLESNAKE,long,resources/sound/trials/audio_stim_human64.mp3,60fd2b38c2980b3c3154306d,18,Female,Right handed,2021-07-27_16h30.41.561,MA Experiment 2,2021.1.2,Win32,60.16847172,1,6,40,32,1,,,,,
1.3809,response_2,,SCOOTER,POTATO,,,,,,NAVY,RECTANGLE,short,resources/sound/catchTrials/audio_control_human_project06.mp3,60fd2b38c2980b3c3154306d,18,Female,Right handed,2021-07-27_16h30.41.561,MA Experiment 2,2021.1.2,Win32,60.16847172,,,,,,0,26,26,14,1
1.3798,response_2,longFoil,TWEEZER,AMBULANCE,,,,,,SACRED,GALAXY,short,resources/sound/trials/audio_stim_comp1.mp3,60fd2b38c2980b3c3154306d,18,Female,Right handed,2021-07-27_16h30.41.561,MA Experiment 2,2021.1.2,Win32,60.16847172,1,7,41,7,1,,,,,
2.5793,response_2,longValid,VESSEL,MEDICINE,,,,,,WHISTLE,TREASURER,long,resources/sound/trials/audio_stim_comp12.mp3,60fd2b38c2980b3c3154306d,18,Female,Right handed,2021-07-27_16h30.41.561,MA Experiment 2,2021.1.2,Win32,60.16847172,1,8,42,20,1,,,,,
1.1126,response_2,longValid,ANCHOR,ALPHABET,,,,,,MINER,EMERALD,long,resources/sound/trials/audio_stim_human6.mp3,60fd2b38c2980b3c3154306d,18,Female,Right handed,2021-07-27_16h30.41.561,MA Experiment 2,2021.1.2,Win32,60.16847172,1,9,43,30,1,,,,,
1.8797,response_1,shortFoil,HURDLE,REFEREE,,,,,,BRAINSTORM,GREEN NEEDLE,short,resources/sound/trials/audio_stim_original.mp3,60fd2b38c2980b3c3154306d,18,Female,Right handed,2021-07-27_16h30.41.561,MA Experiment 2,2021.1.2,Win32,60.16847172,1,10,44,16,1,,,,,
1.1627,response_1,,EVENING,FISHERMAN,,,,,,POISON,REVOLVER,short,resources/sound/catchTrials/audio_control_human_project01.mp3,60fd2b38c2980b3c3154306d,18,Female,Right handed,2021-07-27_16h30.41.561,MA Experiment 2,2021.1.2,Win32,60.16847172,,,,,,0,11,11,9,1
1.2463,response_2,shortFoil,EARTHWORM,POLICEMAN,,,,,,PARTY,SANCTUARY,short,resources/sound/trials/audio_stim_human50.mp3,60fd2b38c2980b3c3154306d,18,Female,Right handed,2021-07-27_16h30.41.561,MA Experiment 2,2021.1.2,Win32,60.16847172,1,11,45,14,1,,,,,
1.9467,response_2,shortValid,MURDER,INJURY,,,,,,RECEIPT,LIMOUSINE,short,resources/sound/trials/audio_stim_comp40.mp3,60fd2b38c2980b3c3154306d,18,Female,Right handed,2021-07-27_16h30.41.561,MA Experiment 2,2021.1.2,Win32,60.16847172,1,12,46,2,1,,,,,
1.7786,response_1,longValid,SOFA,ATHLETICS,,,,,,DAYLIGHT,MATERIAL,short,resources/sound/trials/audio_stim_human42.mp3,60fd2b38c2980b3c3154306d,18,Female,Right handed,2021-07-27_16h30.41.561,MA Experiment 2,2021.1.2,Win32,60.16847172,1,13,47,9,1,,,,,
1.7605,response_1,shortFoil,WINDOW,APPLIANCE,,,,,,DRIZZLE,CARDINAL,short,resources/sound/trials/audio_stim_comp69.mp3,60fd2b38c2980b3c3154306d,18,Female,Right handed,2021-07-27_16h30.41.561,MA Experiment 2,2021.1.2,Win32,60.16847172,1,14,48,0,1,,,,,
1.4949,response_2,,POLO,MOSQUITO,,,,,,ICY,JITTERBUG,short,resources/sound/catchTrials/audio_control_comp_project08.mp3,60fd2b38c2980b3c3154306d,18,Female,Right handed,2021-07-27_16h30.41.561,MA Experiment 2,2021.1.2,Win32,60.16847172,,,,,,0,8,8,7,1
1.2775,response_2,shortFoil,INVOICE,FIREWOOD,,,,,,RUBBER,PROPERTY,short,resources/sound/trials/audio_stim_human0.mp3,60fd2b38c2980b3c3154306d,18,Female,Right handed,2021-07-27_16h30.41.561,MA Experiment 2,2021.1.2,Win32,60.16847172,1,15,49,12,1,,,,,
1.2294,response_2,shortFoil,TORTURE,GRASSHOPPER,,,,,,RUBBER,PROPERTY,long,resources/sound/trials/audio_stim_human0.mp3,60fd2b38c2980b3c3154306d,18,Female,Right handed,2021-07-27_16h30.41.561,MA Experiment 2,2021.1.2,Win32,60.16847172,1,16,50,29,1,,,,,
1.1496,response_1,longFoil,MURAL,MECHANIC,,,,,,DAYLIGHT,MATERIAL,long,resources/sound/trials/audio_stim_human42.mp3,60fd2b38c2980b3c3154306d,18,Female,Right handed,2021-07-27_16h30.41.561,MA Experiment 2,2021.1.2,Win32,60.16847172,1,17,51,26,1,,,,,
1.7777,response_1,longFoil,TUMBLE,CIGARETTE,,,,,,WHISTLE,TREASURER,short,resources/sound/trials/audio_stim_comp12.mp3,60fd2b38c2980b3c3154306d,18,Female,Right handed,2021-07-27_16h30.41.561,MA Experiment 2,2021.1.2,Win32,60.16847172,1,18,52,3,1,,,,,
1.7293,response_1,,RABBI,AMMONIA,,,,,,POISON,REVOLVER,long,resources/sound/catchTrials/audio_control_human_project01.mp3,60fd2b38c2980b3c3154306d,18,Female,Right handed,2021-07-27_16h30.41.561,MA Experiment 2,2021.1.2,Win32,60.16847172,,,,,,0,18,18,25,1
1.3616,response_1,longFoil,CRYSTAL,MERCURY,,,,,,MINER,EMERALD,long,resources/sound/trials/audio_stim_comp6.mp3,60fd2b38c2980b3c3154306d,18,Female,Right handed,2021-07-27_16h30.41.561,MA Experiment 2,2021.1.2,Win32,60.16847172,1,19,53,18,1,,,,,
2.1945,response_1,shortFoil,WIRE,HEROIN,,,,,,MARBLE,CUSTOMER,short,resources/sound/trials/audio_stim_comp65.mp3,60fd2b38c2980b3c3154306d,18,Female,Right handed,2021-07-27_16h30.41.561,MA Experiment 2,2021.1.2,Win32,60.16847172,1,20,54,4,1,,,,,
1.4285,response_1,longFoil,VALLEY,CAPITAL,,,,,,BRAINSTORM,GREEN NEEDLE,long,resources/sound/trials/audio_stim_original.mp3,60fd2b38c2980b3c3154306d,18,Female,Right handed,2021-07-27_16h30.41.561,MA Experiment 2,2021.1.2,Win32,60.16847172,1,21,55,33,1,,,,,
0.9285,response_1,shortFoil,GIRDLE,HOSPITAL,,,,,,MARBLE,CUSTOMER,long,resources/sound/trials/audio_stim_comp65.mp3,60fd2b38c2980b3c3154306d,18,Female,Right handed,2021-07-27_16h30.41.561,MA Experiment 2,2021.1.2,Win32,60.16847172,1,22,56,21,1,,,,,
1.9475,response_2,,CEREAL,CARNATION,,,,,,CORNER,ENGINEER,long,resources/sound/catchTrials/audio_control_comp_project14.mp3,60fd2b38c2980b3c3154306d,18,Female,Right handed,2021-07-27_16h30.41.561,MA Experiment 2,2021.1.2,Win32,60.16847172,,,,,,0,23,23,17,1
1.666,response_1,longFoil,FOREARM,HEADQUARTERS,,,,,,MINER,EMERALD,short,resources/sound/trials/audio_stim_human6.mp3,60fd2b38c2980b3c3154306d,18,Female,Right handed,2021-07-27_16h30.41.561,MA Experiment 2,2021.1.2,Win32,60.16847172,1,23,57,13,1,,,,,
1.3671,response_1,shortFoil,SULPHUR,INSTRUMENT,,,,,,MINER,EMERALD,short,resources/sound/trials/audio_stim_comp6.mp3,60fd2b38c2980b3c3154306d,18,Female,Right handed,2021-07-27_16h30.41.561,MA Experiment 2,2021.1.2,Win32,60.16847172,1,24,58,1,1,,,,,
1.6116,response_2,shortFoil,WAFER,ICICLE,,,,,,PARTY,SANCTUARY,long,resources/sound/trials/audio_stim_human50.mp3,60fd2b38c2980b3c3154306d,18,Female,Right handed,2021-07-27_16h30.41.561,MA Experiment 2,2021.1.2,Win32,60.16847172,1,25,59,31,1,,,,,
1.2941,response_1,longFoil,SADDLE,DIAMOND,,,,,,ATHLETE,IVORY,short,resources/sound/trials/audio_stim_comp57.mp3,60fd2b38c2980b3c3154306d,18,Female,Right handed,2021-07-27_16h30.41.561,MA Experiment 2,2021.1.2,Win32,60.16847172,1,26,60,5,1,,,,,
1.7108,response_1,,NAPKIN,INSTITUTE,,,,,,VIOLET,LUBRICANT,long,resources/sound/catchTrials/audio_control_comp_project07.mp3,60fd2b38c2980b3c3154306d,18,Female,Right handed,2021-07-27_16h30.41.561,MA Experiment 2,2021.1.2,Win32,60.16847172,,,,,,0,27,27,19,1
1.632,response_2,longValid,OLIVE,COMMITTEE,,,,,,ROBBER,RATTLESNAKE,short,resources/sound/trials/audio_stim_human64.mp3,60fd2b38c2980b3c3154306d,18,Female,Right handed,2021-07-27_16h30.41.561,MA Experiment 2,2021.1.2,Win32,60.16847172,1,27,61,15,1,,,,,
1.2482,response_1,shortValid,MISTRESS,ACROBAT,,,,,,CONCRETE,ENEMY,short,resources/sound/trials/audio_stim_human67.mp3,60fd2b38c2980b3c3154306d,18,Female,Right handed,2021-07-27_16h30.41.561,MA Experiment 2,2021.1.2,Win32,60.16847172,1,28,62,10,1,,,,,
1.1451,response_1,shortValid,OFFICE,CINNAMON,,,,,,RECEIPT,LIMOUSINE,long,resources/sound/trials/audio_stim_comp40.mp3,60fd2b38c2980b3c3154306d,18,Female,Right handed,2021-07-27_16h30.41.561,MA Experiment 2,2021.1.2,Win32,60.16847172,1,29,63,19,1,,,,,
0.8447,response_1,longFoil,PATIENT,CATHEDRAL,,,,,,PAINTER,VEHICLE,long,resources/sound/trials/audio_stim_human47.mp3,60fd2b38c2980b3c3154306d,18,Female,Right handed,2021-07-27_16h30.41.561,MA Experiment 2,2021.1.2,Win32,60.16847172,1,30,64,28,1,,,,,
2.4638,response_1,,DIAL,ADMIRAL,,,,,,JUGGLER,DANDELION,long,resources/sound/catchTrials/audio_control_human_project09.mp3,60fd2b38c2980b3c3154306d,18,Female,Right handed,2021-07-27_16h30.41.561,MA Experiment 2,2021.1.2,Win32,60.16847172,,,,,,0,6,6,31,1
0.8467,response_2,longValid,DECOY,ENAMEL,,,,,,DRIZZLE,CARDINAL,long,resources/sound/trials/audio_stim_comp69.mp3,60fd2b38c2980b3c3154306d,18,Female,Right handed,2021-07-27_16h30.41.561,MA Experiment 2,2021.1.2,Win32,60.16847172,1,31,65,17,1,,,,,
1.1618,response_2,shortValid,MEASLES,OPENING,,,,,,HARDWARE,OVERCOAT,short,resources/sound/trials/audio_stim_human35.mp3,60fd2b38c2980b3c3154306d,18,Female,Right handed,2021-07-27_16h30.41.561,MA Experiment 2,2021.1.2,Win32,60.16847172,1,32,66,8,1,,,,,
1.0955,response_2,longValid,NOVEL,CONVENTION,,,,,,WORKER,VISITOR,long,resources/sound/trials/audio_stim_comp17.mp3,60fd2b38c2980b3c3154306d,18,Female,Right handed,2021-07-27_16h30.41.561,MA Experiment 2,2021.1.2,Win32,60.16847172,1,33,67,23,1,,,,,
0.8289,response_1,longFoil,BERRY,BUTTERFLY,,,,,,DRIZZLE,CARDINAL,short,resources/sound/trials/audio_stim_comp69.mp3,60fd2b38c2980b3c3154306d,18,Female,Right handed,2021-07-27_16h30.41.561,MA Experiment 2,2021.1.2,Win32,60.16847172,2,0,68,0,1,,,,,
1.6645,response_2,shortFoil,DIAL,MOLECULE,,,,,,RECEIPT,LIMOUSINE,long,resources/sound/trials/audio_stim_comp40.mp3,60fd2b38c2980b3c3154306d,18,Female,Right handed,2021-07-27_16h30.41.561,MA Experiment 2,2021.1.2,Win32,60.16847172,2,1,69,19,1,,,,,
0.7459,response_2,longValid,ANCHOR,PROPELLER,,,,,,MINER,EMERALD,short,resources/sound/trials/audio_stim_human6.mp3,60fd2b38c2980b3c3154306d,18,Female,Right handed,2021-07-27_16h30.41.561,MA Experiment 2,2021.1.2,Win32,60.16847172,2,2,70,13,1,,,,,
1.4791,response_2,,FEVER,PROFESSOR,,,,,,CORNER,ENGINEER,short,resources/sound/catchTrials/audio_control_human_project14.mp3,60fd2b38c2980b3c3154306d,18,Female,Right handed,2021-07-27_16h30.41.561,MA Experiment 2,2021.1.2,Win32,60.16847172,,,,,,0,10,10,10,1
2.028,response_2,longValid,LIQUID,BUTTERFLY,,,,,,DAYLIGHT,MATERIAL,long,resources/sound/trials/audio_stim_human42.mp3,60fd2b38c2980b3c3154306d,18,Female,Right handed,2021-07-27_16h30.41.561,MA Experiment 2,2021.1.2,Win32,60.16847172,2,3,71,26,1,,,,,
1.112,response_1,shortFoil,MISTRESS,ATTENDANT,,,,,,CONCRETE,ENEMY,long,resources/sound/trials/audio_stim_human67.mp3,60fd2b38c2980b3c3154306d,18,Female,Right handed,2021-07-27_16h30.41.561,MA Experiment 2,2021.1.2,Win32,60.16847172,2,4,72,27,1,,,,,
1.344,response_1,shortFoil,SINGER,STRAWBERRY,,,,,,SACRED,GALAXY,long,resources/sound/trials/audio_stim_comp1.mp3,60fd2b38c2980b3c3154306d,18,Female,Right handed,2021-07-27_16h30.41.561,MA Experiment 2,2021.1.2,Win32,60.16847172,2,5,73,24,1,,,,,
1.2982,response_2,longFoil,TUMBLE,INTERVIEW,,,,,,RUBBER,PROPERTY,short,resources/sound/trials/audio_stim_human0.mp3,60fd2b38c2980b3c3154306d,18,Female,Right handed,2021-07-27_16h30.41.561,MA Experiment 2,2021.1.2,Win32,60.16847172,2,6,74,12,1,,,,,
0.7329,response_2,,WINDOW,COMMITTEE,,,,,,BORDER,ALGEBRA,long,resources/sound/catchTrials/audio_control_comp_project00.mp3,60fd2b38c2980b3c3154306d,18,Female,Right handed,2021-07-27_16h30.41.561,MA Experiment 2,2021.1.2,Win32,60.16847172,,,,,,0,13,13,16,1
1.4092,response_2,longValid,VAPOUR,INSTRUMENT,,,,,,SACRED,GALAXY,short,resources/sound/trials/audio_stim_comp1.mp3,60fd2b38c2980b3c3154306d,18,Female,Right handed,2021-07-27_16h30.41.561,MA Experiment 2,2021.1.2,Win32,60.16847172,2,7,75,7,1,,,,,
0.7656,response_2,longFoil,TWEEZER,RETAILER,,,,,,PARTY,SANCTUARY,short,resources/sound/trials/audio_stim_human50.mp3,60fd2b38c2980b3c3154306d,18,Female,Right handed,2021-07-27_16h30.41.561,MA Experiment 2,2021.1.2,Win32,60.16847172,2,8,76,14,1,,,,,
1.2759,response_2,shortValid,BURNER,UMBRELLA,,,,,,ROBBER,RATTLESNAKE,short,resources/sound/trials/audio_stim_human64.mp3,60fd2b38c2980b3c3154306d,18,Female,Right handed,2021-07-27_16h30.41.561,MA Experiment 2,2021.1.2,Win32,60.16847172,2,9,77,15,1,,,,,
1.9288,response_1,shortFoil,KENNEL,FURNITURE,,,,,,BRAINSTORM,GREEN NEEDLE,long,resources/sound/trials/audio_stim_original.mp3,60fd2b38c2980b3c3154306d,18,Female,Right handed,2021-07-27_16h30.41.561,MA Experiment 2,2021.1.2,Win32,60.16847172,2,10,78,33,1,,,,,
1.3944,response_2,,STOCKING,OPENING,,,,,,NAVY,RECTANGLE,short,resources/sound/catchTrials/audio_control_comp_project06.mp3,60fd2b38c2980b3c3154306d,18,Female,Right handed,2021-07-27_16h30.41.561,MA Experiment 2,2021.1.2,Win32,60.16847172,,,,,,0,20,20,6,1
1.2952,response_2,longValid,INVOICE,NEIGHBOURHOOD,,,,,,MINER,EMERALD,long,resources/sound/trials/audio_stim_comp6.mp3,60fd2b38c2980b3c3154306d,18,Female,Right handed,2021-07-27_16h30.41.561,MA Experiment 2,2021.1.2,Win32,60.16847172,2,11,79,18,1,,,,,
1.88,response_1,longFoil,DWELLER,CINNAMON,,,,,,BRAINSTORM,GREEN NEEDLE,short,resources/sound/trials/audio_stim_original.mp3,60fd2b38c2980b3c3154306d,18,Female,Right handed,2021-07-27_16h30.41.561,MA Experiment 2,2021.1.2,Win32,60.16847172,2,12,80,16,1,,,,,
1.2663,response_1,longValid,PRINCESS,PROJECTOR,,,,,,CONCRETE,ENEMY,short,resources/sound/trials/audio_stim_human67.mp3,60fd2b38c2980b3c3154306d,18,Female,Right handed,2021-07-27_16h30.41.561,MA Experiment 2,2021.1.2,Win32,60.16847172,2,13,81,10,1,,,,,
1.313,response_1,longFoil,WALRUS,ATHLETICS,,,,,,MARBLE,CUSTOMER,short,resources/sound/trials/audio_stim_comp65.mp3,60fd2b38c2980b3c3154306d,18,Female,Right handed,2021-07-27_16h30.41.561,MA Experiment 2,2021.1.2,Win32,60.16847172,2,14,82,4,1,,,,,
1.3663,response_1,,CIGAR,LECTURER,,,,,,JUGGLER,DANDELION,short,resources/sound/catchTrials/audio_control_human_project09.mp3,60fd2b38c2980b3c3154306d,18,Female,Right handed,2021-07-27_16h30.41.561,MA Experiment 2,2021.1.2,Win32,60.16847172,,,,,,0,1,1,15,1
1.0667,response_1,longValid,NATIVE,MICROSCOPE,,,,,,ATHLETE,IVORY,short,resources/sound/trials/audio_stim_comp57.mp3,60fd2b38c2980b3c3154306d,18,Female,Right handed,2021-07-27_16h30.41.561,MA Experiment 2,2021.1.2,Win32,60.16847172,2,15,83,5,1,,,,,
0.932,response_2,longFoil,CURFEW,MONUMENT,,,,,,RUBBER,PROPERTY,long,resources/sound/trials/audio_stim_human0.mp3,60fd2b38c2980b3c3154306d,18,Female,Right handed,2021-07-27_16h30.41.561,MA Experiment 2,2021.1.2,Win32,60.16847172,2,16,84,29,1,,,,,
1.2929,response_1,longFoil,INCOME,FIREWOOD,,,,,,WORKER,VISITOR,short,resources/sound/trials/audio_stim_comp17.mp3,60fd2b38c2980b3c3154306d,18,Female,Right handed,2021-07-27_16h30.41.561,MA Experiment 2,2021.1.2,Win32,60.16847172,2,17,85,6,1,,,,,
1.1765,response_2,shortFoil,TORTURE,GYMNASTICS,,,,,,HARDWARE,OVERCOAT,short,resources/sound/trials/audio_stim_human35.mp3,60fd2b38c2980b3c3154306d,18,Female,Right handed,2021-07-27_16h30.41.561,MA Experiment 2,2021.1.2,Win32,60.16847172,2,18,86,8,1,,,,,
1.3647,response_2,,SODA,ENVELOPE,,,,,,HOBBY,COLONY,short,resources/sound/catchTrials/audio_control_human_project04.mp3,60fd2b38c2980b3c3154306d,18,Female,Right handed,2021-07-27_16h30.41.561,MA Experiment 2,2021.1.2,Win32,60.16847172,,,,,,0,12,12,11,1
1.226,response_2,longValid,OFFICE,INFECTION,,,,,,MINER,EMERALD,short,resources/sound/trials/audio_stim_comp6.mp3,60fd2b38c2980b3c3154306d,18,Female,Right handed,2021-07-27_16h30.41.561,MA Experiment 2,2021.1.2,Win32,60.16847172,2,19,87,1,1,,,,,
1.2435,response_1,shortValid,DUEL,FISHERMAN,,,,,,MINER,EMERALD,long,resources/sound/trials/audio_stim_human6.mp3,60fd2b38c2980b3c3154306d,18,Female,Right handed,2021-07-27_16h30.41.561,MA Experiment 2,2021.1.2,Win32,60.16847172,2,20,88,30,1,,,,,
1.5324,response_2,shortValid,BEETLE,AMMONIA,,,,,,HARDWARE,OVERCOAT,long,resources/sound/trials/audio_stim_human35.mp3,60fd2b38c2980b3c3154306d,18,Female,Right handed,2021-07-27_16h30.41.561,MA Experiment 2,2021.1.2,Win32,60.16847172,2,21,89,25,1,,,,,
1.5775,response_1,shortFoil,MEASLES,GINGERBREAD,,,,,,WHISTLE,TREASURER,long,resources/sound/trials/audio_stim_comp12.mp3,60fd2b38c2980b3c3154306d,18,Female,Right handed,2021-07-27_16h30.41.561,MA Experiment 2,2021.1.2,Win32,60.16847172,2,22,90,20,1,,,,,
1.2607,response_2,,SHOULDER,CARNATION,,,,,,IRIS,VIOLIN,long,resources/sound/catchTrials/audio_control_comp_project12.mp3,60fd2b38c2980b3c3154306d,18,Female,Right handed,2021-07-27_16h30.41.561,MA Experiment 2,2021.1.2,Win32,60.16847172,,,,,,0,30,30,20,1
1.2485,response_2,longFoil,LOBSTER,REFEREE,,,,,,PAINTER,VEHICLE,short,resources/sound/trials/audio_stim_human47.mp3,60fd2b38c2980b3c3154306d,18,Female,Right handed,2021-07-27_16h30.41.561,MA Experiment 2,2021.1.2,Win32,60.16847172,2,23,91,11,1,,,,,
1.1256,response_2,longFoil,GIRDLE,POTATO,,,,,,PARTY,SANCTUARY,long,resources/sound/trials/audio_stim_human50.mp3,60fd2b38c2980b3c3154306d,18,Female,Right handed,2021-07-27_16h30.41.561,MA Experiment 2,2021.1.2,Win32,60.16847172,2,24,92,31,1,,,,,
0.4841,response_1,shortFoil,MOONLIGHT,CAMERA,,,,,,WORKER,VISITOR,long,resources/sound/trials/audio_stim_comp17.mp3,60fd2b38c2980b3c3154306d,18,Female,Right handed,2021-07-27_16h30.41.561,MA Experiment 2,2021.1.2,Win32,60.16847172,2,25,93,23,1,,,,,
1.6663,response_1,longValid,CABIN,ABDOMEN,,,,,,WHISTLE,TREASURER,short,resources/sound/trials/audio_stim_comp12.mp3,60fd2b38c2980b3c3154306d,18,Female,Right handed,2021-07-27_16h30.41.561,MA Experiment 2,2021.1.2,Win32,60.16847172,2,26,94,3,1,,,,,
1.1616,response_1,,TEMPLE,HEADQUARTERS,,,,,,VIOLET,LUBRICANT,short,resources/sound/catchTrials/audio_control_comp_project07.mp3,60fd2b38c2980b3c3154306d,18,Female,Right handed,2021-07-27_16h30.41.561,MA Experiment 2,2021.1.2,Win32,60.16847172,,,,,,0,15,15,3,1
1.2986,response_1,shortFoil,SCOOTER,HOSPITAL,,,,,,RECEIPT,LIMOUSINE,short,resources/sound/trials/audio_stim_comp40.mp3,60fd2b38c2980b3c3154306d,18,Female,Right handed,2021-07-27_16h30.41.561,MA Experiment 2,2021.1.2,Win32,60.16847172,2,27,95,2,1,,,,,
1.0782,response_1,shortFoil,UNCLE,INJURY,,,,,,DAYLIGHT,MATERIAL,short,resources/sound/trials/audio_stim_human42.mp3,60fd2b38c2980b3c3154306d,18,Female,Right handed,2021-07-27_16h30.41.561,MA Experiment 2,2021.1.2,Win32,60.16847172,2,28,96,9,1,,,,,
0.7095,response_2,longFoil,HURDLE,PHYSICIAN,,,,,,DRIZZLE,CARDINAL,long,resources/sound/trials/audio_stim_comp69.mp3,60fd2b38c2980b3c3154306d,18,Female,Right handed,2021-07-27_16h30.41.561,MA Experiment 2,2021.1.2,Win32,60.16847172,2,29,97,17,1,,,,,
1.0613,response_2,longValid,PIANO,AVENUE,,,,,,PAINTER,VEHICLE,long,resources/sound/trials/audio_stim_human47.mp3,60fd2b38c2980b3c3154306d,18,Female,Right handed,2021-07-27_16h30.41.561,MA Experiment 2,2021.1.2,Win32,60.16847172,2,30,98,28,1,,,,,
1.1991,response_2,,DECOY,CANDLELIGHT,,,,,,SPINACH,APRICOT,short,resources/sound/catchTrials/audio_control_comp_project18.mp3,60fd2b38c2980b3c3154306d,18,Female,Right handed,2021-07-27_16h30.41.561,MA Experiment 2,2021.1.2,Win32,60.16847172,,,,,,0,21,21,5,1
1.2611,response_2,shortFoil,HAMSTER,HANDKERCHIEF,,,,,,ROBBER,RATTLESNAKE,long,resources/sound/trials/audio_stim_human64.mp3,60fd2b38c2980b3c3154306d,18,Female,Right handed,2021-07-27_16h30.41.561,MA Experiment 2,2021.1.2,Win32,60.16847172,2,31,99,32,1,,,,,
0.4788,response_1,shortValid,BUTTER,MEDICINE,,,,,,ATHLETE,IVORY,long,resources/sound/trials/audio_stim_comp57.mp3,60fd2b38c2980b3c3154306d,18,Female,Right handed,2021-07-27_16h30.41.561,MA Experiment 2,2021.1.2,Win32,60.16847172,2,32,100,22,1,,,,,
1.2156,response_1,shortValid,EARTHWORM,PHOTOGRAPH,,,,,,MARBLE,CUSTOMER,long,resources/sound/trials/audio_stim_comp65.mp3,60fd2b38c2980b3c3154306d,18,Female,Right handed,2021-07-27_16h30.41.561,MA Experiment 2,2021.1.2,Win32,60.16847172,2,33,101,21,1,,,,,
1.015,response_1,shortValid,SADDLE,INSTRUCTOR,,,,,,ATHLETE,IVORY,short,resources/sound/trials/audio_stim_comp57.mp3,60fd2b38c2980b3c3154306d,18,Female,Right handed,2021-07-27_16h30.41.561,MA Experiment 2,2021.1.2,Win32,60.16847172,3,0,102,5,1,,,,,
0.8733,response_2,longValid,VALLEY,POLICEMAN,,,,,,PARTY,SANCTUARY,short,resources/sound/trials/audio_stim_human50.mp3,60fd2b38c2980b3c3154306d,18,Female,Right handed,2021-07-27_16h30.41.561,MA Experiment 2,2021.1.2,Win32,60.16847172,3,1,103,14,1,,,,,
1.4661,response_1,longValid,KERNEL,GALLERY,,,,,,MARBLE,CUSTOMER,short,resources/sound/trials/audio_stim_comp65.mp3,60fd2b38c2980b3c3154306d,18,Female,Right handed,2021-07-27_16h30.41.561,MA Experiment 2,2021.1.2,Win32,60.16847172,3,2,104,4,1,,,,,
1.265,response_2,,VESSEL,CLARINET,,,,,,BORDER,ALGEBRA,short,resources/sound/catchTrials/audio_control_comp_project00.mp3,60fd2b38c2980b3c3154306d,18,Female,Right handed,2021-07-27_16h30.41.561,MA Experiment 2,2021.1.2,Win32,60.16847172,,,,,,0,17,17,0,1
1.2281,response_2,shortValid,OLIVE,GORILLA,,,,,,RUBBER,PROPERTY,long,resources/sound/trials/audio_stim_human0.mp3,60fd2b38c2980b3c3154306d,18,Female,Right handed,2021-07-27_16h30.41.561,MA Experiment 2,2021.1.2,Win32,60.16847172,3,3,105,29,1,,,,,
2.5941,response_2,longFoil,ACRE,ICICLE,,,,,,RECEIPT,LIMOUSINE,long,resources/sound/trials/audio_stim_comp40.mp3,60fd2b38c2980b3c3154306d,18,Female,Right handed,2021-07-27_16h30.41.561,MA Experiment 2,2021.1.2,Win32,60.16847172,3,4,106,19,1,,,,,
0.9324,response_2,longValid,MURAL,ALCOHOL,,,,,,PARTY,SANCTUARY,long,resources/sound/trials/audio_stim_human50.mp3,60fd2b38c2980b3c3154306d,18,Female,Right handed,2021-07-27_16h30.41.561,MA Experiment 2,2021.1.2,Win32,60.16847172,3,5,107,31,1,,,,,
1.4648,response_2,longValid,HARBOUR,VINEGAR,,,,,,HARDWARE,OVERCOAT,short,resources/sound/trials/audio_stim_human35.mp3,60fd2b38c2980b3c3154306d,18,Female,Right handed,2021-07-27_16h30.41.561,MA Experiment 2,2021.1.2,Win32,60.16847172,3,6,108,8,1,,,,,
1.3116,response_2,,SULPHUR,TANGERINE,,,,,,IRIS,VIOLIN,long,resources/sound/catchTrials/audio_control_human_project12.mp3,60fd2b38c2980b3c3154306d,18,Female,Right handed,2021-07-27_16h30.41.561,MA Experiment 2,2021.1.2,Win32,60.16847172,,,,,,0,25,25,24,1
1.748,response_1,shortValid,CAPTAIN,APPLIANCE,,,,,,DAYLIGHT,MATERIAL,long,resources/sound/trials/audio_stim_human42.mp3,60fd2b38c2980b3c3154306d,18,Female,Right handed,2021-07-27_16h30.41.561,MA Experiment 2,2021.1.2,Win32,60.16847172,3,7,109,26,1,,,,,
0.876,response_1,shortValid,TRAITOR,ORNAMENT,,,,,,MINER,EMERALD,short,resources/sound/trials/audio_stim_human6.mp3,60fd2b38c2980b3c3154306d,18,Female,Right handed,2021-07-27_16h30.41.561,MA Experiment 2,2021.1.2,Win32,60.16847172,3,8,110,13,1,,,,,
1.5818,response_1,longFoil,CHIPMUNK,INDUSTRY,,,,,,MARBLE,CUSTOMER,long,resources/sound/trials/audio_stim_comp65.mp3,60fd2b38c2980b3c3154306d,18,Female,Right handed,2021-07-27_16h30.41.561,MA Experiment 2,2021.1.2,Win32,60.16847172,3,9,111,21,1,,,,,
1.7445,response_1,longFoil,RABBI,DIAMOND,,,,,,WHISTLE,TREASURER,long,resources/sound/trials/audio_stim_comp12.mp3,60fd2b38c2980b3c3154306d,18,Female,Right handed,2021-07-27_16h30.41.561,MA Experiment 2,2021.1.2,Win32,60.16847172,3,10,112,20,1,,,,,
1.0606,response_2,,PERSON,DESTROYER,,,,,,ICY,JITTERBUG,long,resources/sound/catchTrials/audio_control_comp_project08.mp3,60fd2b38c2980b3c3154306d,18,Female,Right handed,2021-07-27_16h30.41.561,MA Experiment 2,2021.1.2,Win32,60.16847172,,,,,,0,2,2,23,1
1.1139,response_2,shortValid,FERTILE,SETTLEMENT,,,,,,ROBBER,RATTLESNAKE,long,resources/sound/trials/audio_stim_human64.mp3,60fd2b38c2980b3c3154306d,18,Female,Right handed,2021-07-27_16h30.41.561,MA Experiment 2,2021.1.2,Win32,60.16847172,3,11,113,32,1,,,,,
1.9108,response_1,shortFoil,HAMMER,CATHEDRAL,,,,,,PAINTER,VEHICLE,long,resources/sound/trials/audio_stim_human47.mp3,60fd2b38c2980b3c3154306d,18,Female,Right handed,2021-07-27_16h30.41.561,MA Experiment 2,2021.1.2,Win32,60.16847172,3,12,114,28,1,,,,,
1.8773,response_2,longFoil,VILLAGE,HEROIN,,,,,,MINER,EMERALD,short,resources/sound/trials/audio_stim_comp6.mp3,60fd2b38c2980b3c3154306d,18,Female,Right handed,2021-07-27_16h30.41.561,MA Experiment 2,2021.1.2,Win32,60.16847172,3,13,115,1,1,,,,,
1.9401,response_2,longValid,BERRY,CHOCOLATE,,,,,,BRAINSTORM,GREEN NEEDLE,long,resources/sound/trials/audio_stim_original.mp3,60fd2b38c2980b3c3154306d,18,Female,Right handed,2021-07-27_16h30.41.561,MA Experiment 2,2021.1.2,Win32,60.16847172,3,14,116,33,1,,,,,
1.6946,response_1,,MORNING,ENAMEL,,,,,,VIOLET,LUBRICANT,long,resources/sound/catchTrials/audio_control_human_project07.mp3,60fd2b38c2980b3c3154306d,18,Female,Right handed,2021-07-27_16h30.41.561,MA Experiment 2,2021.1.2,Win32,60.16847172,,,,,,0,31,31,28,1
0.9754,response_1,longFoil,PODIUM,HURRICANE,,,,,,CONCRETE,ENEMY,short,resources/sound/trials/audio_stim_human67.mp3,60fd2b38c2980b3c3154306d,18,Female,Right handed,2021-07-27_16h30.41.561,MA Experiment 2,2021.1.2,Win32,60.16847172,3,15,117,10,1,,,,,
1.4781,response_1,longValid,BISHOP,NEWSPAPER,,,,,,ATHLETE,IVORY,long,resources/sound/trials/audio_stim_comp57.mp3,60fd2b38c2980b3c3154306d,18,Female,Right handed,2021-07-27_16h30.41.561,MA Experiment 2,2021.1.2,Win32,60.16847172,3,16,118,22,1,,,,,
0.6968,response_2,shortFoil,MEDICINE,MESSENGER,,,,,,MINER,EMERALD,long,resources/sound/trials/audio_stim_human6.mp3,60fd2b38c2980b3c3154306d,18,Female,Right handed,2021-07-27_16h30.41.561,MA Experiment 2,2021.1.2,Win32,60.16847172,3,17,119,30,1,,,,,
1.5781,response_2,shortValid,NURSERY,CABINET,,,,,,SACRED,GALAXY,long,resources/sound/trials/audio_stim_comp1.mp3,60fd2b38c2980b3c3154306d,18,Female,Right handed,2021-07-27_16h30.41.561,MA Experiment 2,2021.1.2,Win32,60.16847172,3,18,120,24,1,,,,,
0.6612,response_2,,PIPING,CAPITAL,,,,,,HOBBY,COLONY,long,resources/sound/catchTrials/audio_control_comp_project04.mp3,60fd2b38c2980b3c3154306d,18,Female,Right handed,2021-07-27_16h30.41.561,MA Experiment 2,2021.1.2,Win32,60.16847172,,,,,,0,22,22,18,1
1.5316,response_1,shortFoil,FATHER,INSTITUTE,,,,,,PAINTER,VEHICLE,short,resources/sound/trials/audio_stim_human47.mp3,60fd2b38c2980b3c3154306d,18,Female,Right handed,2021-07-27_16h30.41.561,MA Experiment 2,2021.1.2,Win32,60.16847172,3,19,121,11,1,,,,,
1.4277,response_1,shortValid,MURDER,LEMONADE,,,,,,DRIZZLE,CARDINAL,long,resources/sound/trials/audio_stim_comp69.mp3,60fd2b38c2980b3c3154306d,18,Female,Right handed,2021-07-27_16h30.41.561,MA Experiment 2,2021.1.2,Win32,60.16847172,3,20,122,17,1,,,,,
1.4289,response_1,shortValid,GRADUATE,FACTORY,,,,,,BRAINSTORM,GREEN NEEDLE,short,resources/sound/trials/audio_stim_original.mp3,60fd2b38c2980b3c3154306d,18,Female,Right handed,2021-07-27_16h30.41.561,MA Experiment 2,2021.1.2,Win32,60.16847172,3,21,123,16,1,,,,,
1.5949,response_1,longFoil,SOFA,FAMILY,,,,,,DAYLIGHT,MATERIAL,short,resources/sound/trials/audio_stim_human42.mp3,60fd2b38c2980b3c3154306d,18,Female,Right handed,2021-07-27_16h30.41.561,MA Experiment 2,2021.1.2,Win32,60.16847172,3,22,124,9,1,,,,,
1.2788,response_2,,NEIGHBOUR,BEVERAGE,,,,,,HOBBY,COLONY,long,resources/sound/catchTrials/audio_control_human_project04.mp3,60fd2b38c2980b3c3154306d,18,Female,Right handed,2021-07-27_16h30.41.561,MA Experiment 2,2021.1.2,Win32,60.16847172,,,,,,0,28,28,27,1
2.5102,response_1,shortValid,RUSTY,ALPHABET,,,,,,MINER,EMERALD,long,resources/sound/trials/audio_stim_comp6.mp3,60fd2b38c2980b3c3154306d,18,Female,Right handed,2021-07-27_16h30.41.561,MA Experiment 2,2021.1.2,Win32,60.16847172,3,23,125,18,1,,,,,
1.1485,response_1,shortValid,CEREAL,SPECIALIST,,,,,,DRIZZLE,CARDINAL,short,resources/sound/trials/audio_stim_comp69.mp3,60fd2b38c2980b3c3154306d,18,Female,Right handed,2021-07-27_16h30.41.561,MA Experiment 2,2021.1.2,Win32,60.16847172,3,24,126,0,1,,,,,
1.1611,response_1,shortValid,EVENING,CONVENTION,,,,,,WHISTLE,TREASURER,short,resources/sound/trials/audio_stim_comp12.mp3,60fd2b38c2980b3c3154306d,18,Female,Right handed,2021-07-27_16h30.41.561,MA Experiment 2,2021.1.2,Win32,60.16847172,3,25,127,3,1,,,,,
0.7826,response_1,shortValid,MUSCLE,AMBULANCE,,,,,,SACRED,GALAXY,short,resources/sound/trials/audio_stim_comp1.mp3,60fd2b38c2980b3c3154306d,18,Female,Right handed,2021-07-27_16h30.41.561,MA Experiment 2,2021.1.2,Win32,60.16847172,3,26,128,7,1,,,,,
1.249,response_2,,FAIRY,GOVERNMENT,,,,,,JOURNAL,ROBBERY,short,resources/sound/catchTrials/audio_control_human_project02.mp3,60fd2b38c2980b3c3154306d,18,Female,Right handed,2021-07-27_16h30.41.561,MA Experiment 2,2021.1.2,Win32,60.16847172,,,,,,0,4,4,13,1
1.4768,response_2,longValid,WRITING,OXYGEN,,,,,,WORKER,VISITOR,short,resources/sound/trials/audio_stim_comp17.mp3,60fd2b38c2980b3c3154306d,18,Female,Right handed,2021-07-27_16h30.41.561,MA Experiment 2,2021.1.2,Win32,60.16847172,3,27,129,6,1,,,,,
1.1284,response_2,longValid,JURY,MERCURY,,,,,,RUBBER,PROPERTY,short,resources/sound/trials/audio_stim_human0.mp3,60fd2b38c2980b3c3154306d,18,Female,Right handed,2021-07-27_16h30.41.561,MA Experiment 2,2021.1.2,Win32,60.16847172,3,28,130,12,1,,,,,
0.7125,response_1,longValid,KETTLE,MOSQUITO,,,,,,RECEIPT,LIMOUSINE,short,resources/sound/trials/audio_stim_comp40.mp3,60fd2b38c2980b3c3154306d,18,Female,Right handed,2021-07-27_16h30.41.561,MA Experiment 2,2021.1.2,Win32,60.16847172,3,29,131,2,1,,,,,
1.5759,response_2,longFoil,DIVING,CROCODILE,,,,,,ROBBER,RATTLESNAKE,short,resources/sound/trials/audio_stim_human64.mp3,60fd2b38c2980b3c3154306d,18,Female,Right handed,2021-07-27_16h30.41.561,MA Experiment 2,2021.1.2,Win32,60.16847172,3,30,132,15,1,,,,,
1.0952,response_2,,POLO,CITIZEN,,,,,,CORNER,ENGINEER,short,resources/sound/catchTrials/audio_control_comp_project14.mp3,60fd2b38c2980b3c3154306d,18,Female,Right handed,2021-07-27_16h30.41.561,MA Experiment 2,2021.1.2,Win32,60.16847172,,,,,,0,29,29,1,1
1.8113,response_1,shortValid,DANCER,ANTIQUE,,,,,,WORKER,VISITOR,long,resources/sound/trials/audio_stim_comp17.mp3,60fd2b38c2980b3c3154306d,18,Female,Right handed,2021-07-27_16h30.41.561,MA Experiment 2,2021.1.2,Win32,60.16847172,3,31,133,23,1,,,,,
1.5488,response_2,shortFoil,WAFER,MINERAL,,,,,,HARDWARE,OVERCOAT,long,resources/sound/trials/audio_stim_human35.mp3,60fd2b38c2980b3c3154306d,18,Female,Right handed,2021-07-27_16h30.41.561,MA Experiment 2,2021.1.2,Win32,60.16847172,3,32,134,25,1,,,,,
1.0503,response_1,longValid,PATIENT,TEMPERATURE,,,,,,CONCRETE,ENEMY,long,resources/sound/trials/audio_stim_human67.mp3,60fd2b38c2980b3c3154306d,18,Female,Right handed,2021-07-27_16h30.41.561,MA Experiment 2,2021.1.2,Win32,60.16847172,3,33,135,27,1,,,,,
