response.time,response,cueTarget,rand_foil_1,rand_foil_2,prac_trials.thisRepN,prac_trials.thisTrialN,prac_trials.thisN,prac_trials.thisIndex,prac_trials.ran,word_1,word_2,cue,file_path,participant,age,gender,handedness,date,expName,psychopyVersion,OS,frameRate,trials.thisRepN,trials.thisTrialN,trials.thisN,trials.thisIndex,trials.ran,catchTrials.thisRepN,catchTrials.thisTrialN,catchTrials.thisN,catchTrials.thisIndex,catchTrials.ran
2.7047,response_2,longValid,TUMBLE,NEIGHBOURHOOD,0,0,0,6,1,VACANT,SALVATION,long,resources/sound/prac_trials/practice_cue6.mp3,60fd8e76456640e5ba259d5f,18,Male,Right handed,2021-07-26_21h07.24.273,MA Experiment 2,2021.1.2,Win32,60.01680471,,,,,,,,,,
1.4093,response_1,shortFoil,GRADUATE,LECTURER,0,1,1,10,1,SAFFRON,JAVELIN,long,resources/sound/prac_trials/practice_cue10.mp3,60fd8e76456640e5ba259d5f,18,Male,Right handed,2021-07-26_21h07.24.273,MA Experiment 2,2021.1.2,Win32,60.01680471,,,,,,,,,,
1.5252,response_2,shortValid,PRINCESS,CAPITAL,0,2,2,4,1,FIZZY,ELECTRIC,short,resources/sound/prac_trials/practice_cue4.mp3,60fd8e76456640e5ba259d5f,18,Male,Right handed,2021-07-26_21h07.24.273,MA Experiment 2,2021.1.2,Win32,60.01680471,,,,,,,,,,
2.3905,response_2,shortFoil,EVENING,ENAMEL,0,3,3,8,1,DAGGER,EMPHASIS,long,resources/sound/prac_trials/practice_cue8.mp3,60fd8e76456640e5ba259d5f,18,Male,Right handed,2021-07-26_21h07.24.273,MA Experiment 2,2021.1.2,Win32,60.01680471,,,,,,,,,,
2.3415,response_2,longFoil,BURNER,CLARINET,0,4,4,5,1,NONSENSE,OASIS,short,resources/sound/prac_trials/practice_cue_human5.mp3,60fd8e76456640e5ba259d5f,18,Male,Right handed,2021-07-26_21h07.24.273,MA Experiment 2,2021.1.2,Win32,60.01680471,,,,,,,,,,
2.459,response_2,shortFoil,NEIGHBOUR,ATTENDANT,0,5,5,0,1,AARDVARK,FALLACY,short,resources/sound/prac_trials/practice_cue0.mp3,60fd8e76456640e5ba259d5f,18,Male,Right handed,2021-07-26_21h07.24.273,MA Experiment 2,2021.1.2,Win32,60.01680471,,,,,,,,,,
1.5418,response_2,shortFoil,SADDLE,GOVERNMENT,0,6,6,7,1,BUCKLE,WALLABY,long,resources/sound/prac_trials/practice_cue_human7.mp3,60fd8e76456640e5ba259d5f,18,Male,Right handed,2021-07-26_21h07.24.273,MA Experiment 2,2021.1.2,Win32,60.01680471,,,,,,,,,,
2.3084,response_2,shortValid,TEMPLE,CONVENTION,0,7,7,9,1,GRUMPY,LABYRINTH,long,resources/sound/prac_trials/practice_cue_human9.mp3,60fd8e76456640e5ba259d5f,18,Male,Right handed,2021-07-26_21h07.24.273,MA Experiment 2,2021.1.2,Win32,60.01680471,,,,,,,,,,
1.6085,response_1,longFoil,WINDOW,HOSPITAL,0,8,8,11,1,KETCHUP,GONDOLA,long,resources/sound/prac_trials/practice_cue_human11.mp3,60fd8e76456640e5ba259d5f,18,Male,Right handed,2021-07-26_21h07.24.273,MA Experiment 2,2021.1.2,Win32,60.01680471,,,,,,,,,,
1.808,response_2,longValid,CHIPMUNK,MOLECULE,0,9,9,2,1,RECENT,TOBACCO,short,resources/sound/prac_trials/practice_cue2.mp3,60fd8e76456640e5ba259d5f,18,Male,Right handed,2021-07-26_21h07.24.273,MA Experiment 2,2021.1.2,Win32,60.01680471,,,,,,,,,,
1.7419,response_1,longFoil,EARTHWORM,DISSECTION,0,10,10,1,1,CABLE,REPUBLIC,short,resources/sound/prac_trials/practice_cue_human1.mp3,60fd8e76456640e5ba259d5f,18,Male,Right handed,2021-07-26_21h07.24.273,MA Experiment 2,2021.1.2,Win32,60.01680471,,,,,,,,,,
1.1901,response_2,longFoil,WRITING,MONUMENT,0,11,11,3,1,EAGER,QUALIFY,short,resources/sound/prac_trials/practice_cue_human3.mp3,60fd8e76456640e5ba259d5f,18,Male,Right handed,2021-07-26_21h07.24.273,MA Experiment 2,2021.1.2,Win32,60.01680471,,,,,,,,,,
1.5746,response_2,longFoil,LEADER,CANDLELIGHT,,,,,,ROBBER,RATTLESNAKE,short,resources/sound/trials/audio_stim_human64.mp3,60fd8e76456640e5ba259d5f,18,Male,Right handed,2021-07-26_21h07.24.273,MA Experiment 2,2021.1.2,Win32,60.01680471,0,0,0,15,1,,,,,
1.8086,response_2,longFoil,MURDER,LEMONADE,,,,,,CONCRETE,ENEMY,short,resources/sound/trials/audio_stim_human67.mp3,60fd8e76456640e5ba259d5f,18,Male,Right handed,2021-07-26_21h07.24.273,MA Experiment 2,2021.1.2,Win32,60.01680471,0,1,1,10,1,,,,,
2.6235,response_1,longFoil,MUSCLE,STRAWBERRY,,,,,,MINER,EMERALD,long,resources/sound/trials/audio_stim_human6.mp3,60fd8e76456640e5ba259d5f,18,Male,Right handed,2021-07-26_21h07.24.273,MA Experiment 2,2021.1.2,Win32,60.01680471,0,2,2,30,1,,,,,
1.6073,response_2,,TORTURE,PHOTOGRAPH,,,,,,CORNER,ENGINEER,short,resources/sound/catchTrials/audio_control_comp_project14.mp3,60fd8e76456640e5ba259d5f,18,Male,Right handed,2021-07-26_21h07.24.273,MA Experiment 2,2021.1.2,Win32,60.01680471,,,,,,0,21,21,1,1
1.5094,response_2,longValid,SOFA,ASBESTOS,,,,,,HARDWARE,OVERCOAT,short,resources/sound/trials/audio_stim_human35.mp3,60fd8e76456640e5ba259d5f,18,Male,Right handed,2021-07-26_21h07.24.273,MA Experiment 2,2021.1.2,Win32,60.01680471,0,3,3,8,1,,,,,
1.6252,response_1,longValid,CRYSTAL,PROFESSOR,,,,,,DRIZZLE,CARDINAL,short,resources/sound/trials/audio_stim_comp69.mp3,60fd8e76456640e5ba259d5f,18,Male,Right handed,2021-07-26_21h07.24.273,MA Experiment 2,2021.1.2,Win32,60.01680471,0,4,4,0,1,,,,,
1.7069,response_2,shortFoil,LIGHTNING,MEDICINE,,,,,,RECEIPT,LIMOUSINE,short,resources/sound/trials/audio_stim_comp40.mp3,60fd8e76456640e5ba259d5f,18,Male,Right handed,2021-07-26_21h07.24.273,MA Experiment 2,2021.1.2,Win32,60.01680471,0,5,5,2,1,,,,,
1.8074,response_1,longValid,MEASLES,DESTROYER,,,,,,PAINTER,VEHICLE,long,resources/sound/trials/audio_stim_human47.mp3,60fd8e76456640e5ba259d5f,18,Male,Right handed,2021-07-26_21h07.24.273,MA Experiment 2,2021.1.2,Win32,60.01680471,0,6,6,28,1,,,,,
1.5248,response_1,,UNCLE,APPLIANCE,,,,,,VIOLET,LUBRICANT,short,resources/sound/catchTrials/audio_control_comp_project07.mp3,60fd8e76456640e5ba259d5f,18,Male,Right handed,2021-07-26_21h07.24.273,MA Experiment 2,2021.1.2,Win32,60.01680471,,,,,,0,4,4,3,1
1.6756,response_1,shortValid,VALLEY,CAMERA,,,,,,WORKER,VISITOR,long,resources/sound/trials/audio_stim_comp17.mp3,60fd8e76456640e5ba259d5f,18,Male,Right handed,2021-07-26_21h07.24.273,MA Experiment 2,2021.1.2,Win32,60.01680471,0,7,7,23,1,,,,,
2.0755,response_1,longValid,MISTRESS,MICROSCOPE,,,,,,PAINTER,VEHICLE,short,resources/sound/trials/audio_stim_human47.mp3,60fd8e76456640e5ba259d5f,18,Male,Right handed,2021-07-26_21h07.24.273,MA Experiment 2,2021.1.2,Win32,60.01680471,0,8,8,11,1,,,,,
1.5418,response_1,shortValid,JURY,HEADQUARTERS,,,,,,ATHLETE,IVORY,long,resources/sound/trials/audio_stim_comp57.mp3,60fd8e76456640e5ba259d5f,18,Male,Right handed,2021-07-26_21h07.24.273,MA Experiment 2,2021.1.2,Win32,60.01680471,0,9,9,22,1,,,,,
1.4762,response_2,shortValid,LOBSTER,AVENUE,,,,,,DAYLIGHT,MATERIAL,long,resources/sound/trials/audio_stim_human42.mp3,60fd8e76456640e5ba259d5f,18,Male,Right handed,2021-07-26_21h07.24.273,MA Experiment 2,2021.1.2,Win32,60.01680471,0,10,10,26,1,,,,,
1.6427,response_1,,DUEL,PROPELLER,,,,,,JUGGLER,DANDELION,short,resources/sound/catchTrials/audio_control_human_project09.mp3,60fd8e76456640e5ba259d5f,18,Male,Right handed,2021-07-26_21h07.24.273,MA Experiment 2,2021.1.2,Win32,60.01680471,,,,,,0,13,13,15,1
1.9074,response_1,shortValid,PIPING,CATHEDRAL,,,,,,DRIZZLE,CARDINAL,long,resources/sound/trials/audio_stim_comp69.mp3,60fd8e76456640e5ba259d5f,18,Male,Right handed,2021-07-26_21h07.24.273,MA Experiment 2,2021.1.2,Win32,60.01680471,0,11,11,17,1,,,,,
2.4572,response_2,longFoil,SHOULDER,CINNAMON,,,,,,WHISTLE,TREASURER,short,resources/sound/trials/audio_stim_comp12.mp3,60fd8e76456640e5ba259d5f,18,Male,Right handed,2021-07-26_21h07.24.273,MA Experiment 2,2021.1.2,Win32,60.01680471,0,12,12,3,1,,,,,
1.8731,response_1,shortFoil,WALRUS,NEWSPAPER,,,,,,RUBBER,PROPERTY,short,resources/sound/trials/audio_stim_human0.mp3,60fd8e76456640e5ba259d5f,18,Male,Right handed,2021-07-26_21h07.24.273,MA Experiment 2,2021.1.2,Win32,60.01680471,0,13,13,12,1,,,,,
1.194,response_1,shortFoil,DIVING,GORILLA,,,,,,WORKER,VISITOR,short,resources/sound/trials/audio_stim_comp17.mp3,60fd8e76456640e5ba259d5f,18,Male,Right handed,2021-07-26_21h07.24.273,MA Experiment 2,2021.1.2,Win32,60.01680471,0,14,14,6,1,,,,,
1.8082,response_2,,DECOY,INDUSTRY,,,,,,BORDER,ALGEBRA,long,resources/sound/catchTrials/audio_control_comp_project00.mp3,60fd8e76456640e5ba259d5f,18,Male,Right handed,2021-07-26_21h07.24.273,MA Experiment 2,2021.1.2,Win32,60.01680471,,,,,,0,23,23,16,1
1.2921,response_2,shortValid,NOVEL,ADMIRAL,,,,,,SACRED,GALAXY,long,resources/sound/trials/audio_stim_comp1.mp3,60fd8e76456640e5ba259d5f,18,Male,Right handed,2021-07-26_21h07.24.273,MA Experiment 2,2021.1.2,Win32,60.01680471,0,15,15,24,1,,,,,
1.7918,response_2,shortValid,RUSTY,MERCURY,,,,,,BRAINSTORM,GREEN NEEDLE,long,resources/sound/trials/audio_stim_original.mp3,60fd8e76456640e5ba259d5f,18,Male,Right handed,2021-07-26_21h07.24.273,MA Experiment 2,2021.1.2,Win32,60.01680471,0,16,16,33,1,,,,,
1.709,response_2,longValid,RABBI,TEMPERATURE,,,,,,SACRED,GALAXY,short,resources/sound/trials/audio_stim_comp1.mp3,60fd8e76456640e5ba259d5f,18,Male,Right handed,2021-07-26_21h07.24.273,MA Experiment 2,2021.1.2,Win32,60.01680471,0,17,17,7,1,,,,,
1.6256,response_2,longValid,STATION,PROJECTOR,,,,,,BRAINSTORM,GREEN NEEDLE,short,resources/sound/trials/audio_stim_original.mp3,60fd8e76456640e5ba259d5f,18,Male,Right handed,2021-07-26_21h07.24.273,MA Experiment 2,2021.1.2,Win32,60.01680471,0,18,18,16,1,,,,,
1.5261,response_2,,HURDLE,CORRIDOR,,,,,,SPINACH,APRICOT,long,resources/sound/catchTrials/audio_control_comp_project18.mp3,60fd8e76456640e5ba259d5f,18,Male,Right handed,2021-07-26_21h07.24.273,MA Experiment 2,2021.1.2,Win32,60.01680471,,,,,,0,30,30,21,1
1.5906,response_1,shortFoil,TRAITOR,MINISTER,,,,,,MINER,EMERALD,short,resources/sound/trials/audio_stim_comp6.mp3,60fd8e76456640e5ba259d5f,18,Male,Right handed,2021-07-26_21h07.24.273,MA Experiment 2,2021.1.2,Win32,60.01680471,0,19,19,1,1,,,,,
2.3916,response_1,shortFoil,NURSERY,SETTLEMENT,,,,,,PARTY,SANCTUARY,short,resources/sound/trials/audio_stim_human50.mp3,60fd8e76456640e5ba259d5f,18,Male,Right handed,2021-07-26_21h07.24.273,MA Experiment 2,2021.1.2,Win32,60.01680471,0,20,20,14,1,,,,,
1.0259,response_2,shortValid,WAFER,INSTITUTE,,,,,,MARBLE,CUSTOMER,long,resources/sound/trials/audio_stim_comp65.mp3,60fd8e76456640e5ba259d5f,18,Male,Right handed,2021-07-26_21h07.24.273,MA Experiment 2,2021.1.2,Win32,60.01680471,0,21,21,21,1,,,,,
1.3587,response_1,longValid,VILLAGE,MINERAL,,,,,,ATHLETE,IVORY,short,resources/sound/trials/audio_stim_comp57.mp3,60fd8e76456640e5ba259d5f,18,Male,Right handed,2021-07-26_21h07.24.273,MA Experiment 2,2021.1.2,Win32,60.01680471,0,22,22,5,1,,,,,
1.3103,response_2,,SULPHUR,GRASSHOPPER,,,,,,ICY,JITTERBUG,long,resources/sound/catchTrials/audio_control_comp_project08.mp3,60fd8e76456640e5ba259d5f,18,Male,Right handed,2021-07-26_21h07.24.273,MA Experiment 2,2021.1.2,Win32,60.01680471,,,,,,0,11,11,23,1
1.7585,response_1,shortFoil,CEREAL,CARNATION,,,,,,MINER,EMERALD,long,resources/sound/trials/audio_stim_comp6.mp3,60fd8e76456640e5ba259d5f,18,Male,Right handed,2021-07-26_21h07.24.273,MA Experiment 2,2021.1.2,Win32,60.01680471,0,23,23,18,1,,,,,
1.1079,response_1,shortValid,VAPOUR,AMBULANCE,,,,,,DAYLIGHT,MATERIAL,short,resources/sound/trials/audio_stim_human42.mp3,60fd8e76456640e5ba259d5f,18,Male,Right handed,2021-07-26_21h07.24.273,MA Experiment 2,2021.1.2,Win32,60.01680471,0,24,24,9,1,,,,,
2.3918,response_1,longFoil,SODA,POLICEMAN,,,,,,PARTY,SANCTUARY,long,resources/sound/trials/audio_stim_human50.mp3,60fd8e76456640e5ba259d5f,18,Male,Right handed,2021-07-26_21h07.24.273,MA Experiment 2,2021.1.2,Win32,60.01680471,0,25,25,31,1,,,,,
1.1592,response_2,longFoil,INVOICE,OPENING,,,,,,RECEIPT,LIMOUSINE,long,resources/sound/trials/audio_stim_comp40.mp3,60fd8e76456640e5ba259d5f,18,Male,Right handed,2021-07-26_21h07.24.273,MA Experiment 2,2021.1.2,Win32,60.01680471,0,26,26,19,1,,,,,
2.1905,response_2,,PICTURE,INFECTION,,,,,,JOURNAL,ROBBERY,short,resources/sound/catchTrials/audio_control_human_project02.mp3,60fd8e76456640e5ba259d5f,18,Male,Right handed,2021-07-26_21h07.24.273,MA Experiment 2,2021.1.2,Win32,60.01680471,,,,,,0,6,6,13,1
1.225,response_2,shortFoil,NECKLACE,INSTRUMENT,,,,,,ROBBER,RATTLESNAKE,long,resources/sound/trials/audio_stim_human64.mp3,60fd8e76456640e5ba259d5f,18,Male,Right handed,2021-07-26_21h07.24.273,MA Experiment 2,2021.1.2,Win32,60.01680471,0,27,27,32,1,,,,,
1.276,response_2,shortFoil,LIQUID,DIAMOND,,,,,,HARDWARE,OVERCOAT,long,resources/sound/trials/audio_stim_human35.mp3,60fd8e76456640e5ba259d5f,18,Male,Right handed,2021-07-26_21h07.24.273,MA Experiment 2,2021.1.2,Win32,60.01680471,0,28,28,25,1,,,,,
1.824,response_1,longFoil,POLO,CROCODILE,,,,,,CONCRETE,ENEMY,long,resources/sound/trials/audio_stim_human67.mp3,60fd8e76456640e5ba259d5f,18,Male,Right handed,2021-07-26_21h07.24.273,MA Experiment 2,2021.1.2,Win32,60.01680471,0,29,29,27,1,,,,,
2.4416,response_2,longValid,TWEEZER,FURNITURE,,,,,,WHISTLE,TREASURER,long,resources/sound/trials/audio_stim_comp12.mp3,60fd8e76456640e5ba259d5f,18,Male,Right handed,2021-07-26_21h07.24.273,MA Experiment 2,2021.1.2,Win32,60.01680471,0,30,30,20,1,,,,,
1.6237,response_2,,MURAL,FIREWOOD,,,,,,HOBBY,COLONY,long,resources/sound/catchTrials/audio_control_comp_project04.mp3,60fd8e76456640e5ba259d5f,18,Male,Right handed,2021-07-26_21h07.24.273,MA Experiment 2,2021.1.2,Win32,60.01680471,,,,,,0,9,9,18,1
1.6082,response_1,shortValid,DANCER,RETAILER,,,,,,MARBLE,CUSTOMER,short,resources/sound/trials/audio_stim_comp65.mp3,60fd8e76456640e5ba259d5f,18,Male,Right handed,2021-07-26_21h07.24.273,MA Experiment 2,2021.1.2,Win32,60.01680471,0,31,31,4,1,,,,,
1.3429,response_1,longFoil,SHEEPSKIN,POTATO,,,,,,MINER,EMERALD,short,resources/sound/trials/audio_stim_human6.mp3,60fd8e76456640e5ba259d5f,18,Male,Right handed,2021-07-26_21h07.24.273,MA Experiment 2,2021.1.2,Win32,60.01680471,0,32,32,13,1,,,,,
1.625,response_2,longValid,SEGMENT,ABDOMEN,,,,,,RUBBER,PROPERTY,long,resources/sound/trials/audio_stim_human0.mp3,60fd8e76456640e5ba259d5f,18,Male,Right handed,2021-07-26_21h07.24.273,MA Experiment 2,2021.1.2,Win32,60.01680471,0,33,33,29,1,,,,,
2.5406,response_1,shortValid,VESSEL,MECHANIC,,,,,,MINER,EMERALD,short,resources/sound/trials/audio_stim_comp6.mp3,60fd8e76456640e5ba259d5f,18,Male,Right handed,2021-07-26_21h07.24.273,MA Experiment 2,2021.1.2,Win32,60.01680471,1,0,34,1,1,,,,,
1.4791,response_1,shortValid,HARBOUR,ALPHABET,,,,,,MINER,EMERALD,long,resources/sound/trials/audio_stim_comp6.mp3,60fd8e76456640e5ba259d5f,18,Male,Right handed,2021-07-26_21h07.24.273,MA Experiment 2,2021.1.2,Win32,60.01680471,1,1,35,18,1,,,,,
0.9923,response_1,longValid,PIANO,ICICLE,,,,,,DAYLIGHT,MATERIAL,short,resources/sound/trials/audio_stim_human42.mp3,60fd8e76456640e5ba259d5f,18,Male,Right handed,2021-07-26_21h07.24.273,MA Experiment 2,2021.1.2,Win32,60.01680471,1,2,36,9,1,,,,,
1.208,response_2,,BERRY,INJURY,,,,,,JOURNAL,ROBBERY,long,resources/sound/catchTrials/audio_control_human_project02.mp3,60fd8e76456640e5ba259d5f,18,Male,Right handed,2021-07-26_21h07.24.273,MA Experiment 2,2021.1.2,Win32,60.01680471,,,,,,0,27,27,29,1
1.2911,response_1,shortFoil,ACRE,JANITOR,,,,,,MINER,EMERALD,long,resources/sound/trials/audio_stim_human6.mp3,60fd8e76456640e5ba259d5f,18,Male,Right handed,2021-07-26_21h07.24.273,MA Experiment 2,2021.1.2,Win32,60.01680471,1,3,37,30,1,,,,,
2.3253,response_1,longFoil,FERTILE,VINEGAR,,,,,,WHISTLE,TREASURER,long,resources/sound/trials/audio_stim_comp12.mp3,60fd8e76456640e5ba259d5f,18,Male,Right handed,2021-07-26_21h07.24.273,MA Experiment 2,2021.1.2,Win32,60.01680471,1,4,38,20,1,,,,,
1.5084,response_1,longFoil,SCOOTER,BUTTERFLY,,,,,,SACRED,GALAXY,short,resources/sound/trials/audio_stim_comp1.mp3,60fd8e76456640e5ba259d5f,18,Male,Right handed,2021-07-26_21h07.24.273,MA Experiment 2,2021.1.2,Win32,60.01680471,1,5,39,7,1,,,,,
1.3252,response_1,longFoil,CAPTAIN,AMMONIA,,,,,,MARBLE,CUSTOMER,short,resources/sound/trials/audio_stim_comp65.mp3,60fd8e76456640e5ba259d5f,18,Male,Right handed,2021-07-26_21h07.24.273,MA Experiment 2,2021.1.2,Win32,60.01680471,1,6,40,4,1,,,,,
1.2746,response_2,,OFFICE,COMMITTEE,,,,,,HOBBY,COLONY,long,resources/sound/catchTrials/audio_control_human_project04.mp3,60fd8e76456640e5ba259d5f,18,Male,Right handed,2021-07-26_21h07.24.273,MA Experiment 2,2021.1.2,Win32,60.01680471,,,,,,0,3,3,27,1
1.3592,response_2,shortFoil,SINGER,TANGERINE,,,,,,SACRED,GALAXY,long,resources/sound/trials/audio_stim_comp1.mp3,60fd8e76456640e5ba259d5f,18,Male,Right handed,2021-07-26_21h07.24.273,MA Experiment 2,2021.1.2,Win32,60.01680471,1,7,41,24,1,,,,,
1.7592,response_2,shortFoil,GIRDLE,INTERVIEW,,,,,,BRAINSTORM,GREEN NEEDLE,short,resources/sound/trials/audio_stim_original.mp3,60fd8e76456640e5ba259d5f,18,Male,Right handed,2021-07-26_21h07.24.273,MA Experiment 2,2021.1.2,Win32,60.01680471,1,8,42,16,1,,,,,
2.3245,response_1,shortValid,DWELLER,ORNAMENT,,,,,,PAINTER,VEHICLE,long,resources/sound/trials/audio_stim_human47.mp3,60fd8e76456640e5ba259d5f,18,Male,Right handed,2021-07-26_21h07.24.273,MA Experiment 2,2021.1.2,Win32,60.01680471,1,9,43,28,1,,,,,
1.6583,response_2,shortFoil,OLIVE,INSTRUCTOR,,,,,,CONCRETE,ENEMY,long,resources/sound/trials/audio_stim_human67.mp3,60fd8e76456640e5ba259d5f,18,Male,Right handed,2021-07-26_21h07.24.273,MA Experiment 2,2021.1.2,Win32,60.01680471,1,10,44,27,1,,,,,
1.2567,response_2,,INCOME,CHOCOLATE,,,,,,HOBBY,COLONY,short,resources/sound/catchTrials/audio_control_comp_project04.mp3,60fd8e76456640e5ba259d5f,18,Male,Right handed,2021-07-26_21h07.24.273,MA Experiment 2,2021.1.2,Win32,60.01680471,,,,,,0,5,5,2,1
1.2088,response_1,longFoil,WIRE,FISHERMAN,,,,,,DRIZZLE,CARDINAL,short,resources/sound/trials/audio_stim_comp69.mp3,60fd8e76456640e5ba259d5f,18,Male,Right handed,2021-07-26_21h07.24.273,MA Experiment 2,2021.1.2,Win32,60.01680471,1,11,45,0,1,,,,,
1.5444,response_1,longFoil,HAMSTER,ALCOHOL,,,,,,DRIZZLE,CARDINAL,long,resources/sound/trials/audio_stim_comp69.mp3,60fd8e76456640e5ba259d5f,18,Male,Right handed,2021-07-26_21h07.24.273,MA Experiment 2,2021.1.2,Win32,60.01680471,1,12,46,17,1,,,,,
2.3236,response_1,longFoil,KENNEL,MOSQUITO,,,,,,PARTY,SANCTUARY,short,resources/sound/trials/audio_stim_human50.mp3,60fd8e76456640e5ba259d5f,18,Male,Right handed,2021-07-26_21h07.24.273,MA Experiment 2,2021.1.2,Win32,60.01680471,1,13,47,14,1,,,,,
1.5912,response_1,longFoil,CIGAR,UMBRELLA,,,,,,WORKER,VISITOR,long,resources/sound/trials/audio_stim_comp17.mp3,60fd8e76456640e5ba259d5f,18,Male,Right handed,2021-07-26_21h07.24.273,MA Experiment 2,2021.1.2,Win32,60.01680471,1,14,48,23,1,,,,,
1.5242,response_2,,PATIENT,OXYGEN,,,,,,BORDER,ALGEBRA,short,resources/sound/catchTrials/audio_control_comp_project00.mp3,60fd8e76456640e5ba259d5f,18,Male,Right handed,2021-07-26_21h07.24.273,MA Experiment 2,2021.1.2,Win32,60.01680471,,,,,,0,28,28,0,1
1.5751,response_2,longValid,PODIUM,ATHLETICS,,,,,,RECEIPT,LIMOUSINE,short,resources/sound/trials/audio_stim_comp40.mp3,60fd8e76456640e5ba259d5f,18,Male,Right handed,2021-07-26_21h07.24.273,MA Experiment 2,2021.1.2,Win32,60.01680471,1,15,49,2,1,,,,,
1.2921,response_1,shortFoil,CANTEEN,SAXOPHONE,,,,,,ATHLETE,IVORY,short,resources/sound/trials/audio_stim_comp57.mp3,60fd8e76456640e5ba259d5f,18,Male,Right handed,2021-07-26_21h07.24.273,MA Experiment 2,2021.1.2,Win32,60.01680471,1,16,50,5,1,,,,,
1.9087,response_2,longFoil,FATHER,ENVELOPE,,,,,,DAYLIGHT,MATERIAL,long,resources/sound/trials/audio_stim_human42.mp3,60fd8e76456640e5ba259d5f,18,Male,Right handed,2021-07-26_21h07.24.273,MA Experiment 2,2021.1.2,Win32,60.01680471,1,17,51,26,1,,,,,
1.4426,response_2,longFoil,ANCHOR,HANDKERCHIEF,,,,,,HARDWARE,OVERCOAT,short,resources/sound/trials/audio_stim_human35.mp3,60fd8e76456640e5ba259d5f,18,Male,Right handed,2021-07-26_21h07.24.273,MA Experiment 2,2021.1.2,Win32,60.01680471,1,18,52,8,1,,,,,
1.076,response_2,,FOREARM,PHYSICIAN,,,,,,CORNER,ENGINEER,short,resources/sound/catchTrials/audio_control_human_project14.mp3,60fd8e76456640e5ba259d5f,18,Male,Right handed,2021-07-26_21h07.24.273,MA Experiment 2,2021.1.2,Win32,60.01680471,,,,,,0,14,14,10,1
1.109,response_2,longFoil,CURFEW,REFEREE,,,,,,HARDWARE,OVERCOAT,long,resources/sound/trials/audio_stim_human35.mp3,60fd8e76456640e5ba259d5f,18,Male,Right handed,2021-07-26_21h07.24.273,MA Experiment 2,2021.1.2,Win32,60.01680471,1,19,53,25,1,,,,,
1.5755,response_1,shortFoil,FAIRY,SPECIALIST,,,,,,ATHLETE,IVORY,long,resources/sound/trials/audio_stim_comp57.mp3,60fd8e76456640e5ba259d5f,18,Male,Right handed,2021-07-26_21h07.24.273,MA Experiment 2,2021.1.2,Win32,60.01680471,1,20,54,22,1,,,,,
1.3416,response_2,longValid,BISHOP,FAMILY,,,,,,WORKER,VISITOR,short,resources/sound/trials/audio_stim_comp17.mp3,60fd8e76456640e5ba259d5f,18,Male,Right handed,2021-07-26_21h07.24.273,MA Experiment 2,2021.1.2,Win32,60.01680471,1,21,55,6,1,,,,,
1.3418,response_1,longValid,STOCKING,BEVERAGE,,,,,,CONCRETE,ENEMY,short,resources/sound/trials/audio_stim_human67.mp3,60fd8e76456640e5ba259d5f,18,Male,Right handed,2021-07-26_21h07.24.273,MA Experiment 2,2021.1.2,Win32,60.01680471,1,22,56,10,1,,,,,
1.6076,response_1,,KERNEL,GYMNASTICS,,,,,,VIOLET,LUBRICANT,long,resources/sound/catchTrials/audio_control_comp_project07.mp3,60fd8e76456640e5ba259d5f,18,Male,Right handed,2021-07-26_21h07.24.273,MA Experiment 2,2021.1.2,Win32,60.01680471,,,,,,0,25,25,19,1
2.8735,response_1,shortFoil,DOORWAY,MESSENGER,,,,,,RUBBER,PROPERTY,long,resources/sound/trials/audio_stim_human0.mp3,60fd8e76456640e5ba259d5f,18,Male,Right handed,2021-07-26_21h07.24.273,MA Experiment 2,2021.1.2,Win32,60.01680471,1,23,57,29,1,,,,,
1.4082,response_1,shortFoil,FEVER,GINGERBREAD,,,,,,PARTY,SANCTUARY,long,resources/sound/trials/audio_stim_human50.mp3,60fd8e76456640e5ba259d5f,18,Male,Right handed,2021-07-26_21h07.24.273,MA Experiment 2,2021.1.2,Win32,60.01680471,1,24,58,31,1,,,,,
1.375,response_1,longValid,CABIN,CITIZEN,,,,,,WHISTLE,TREASURER,short,resources/sound/trials/audio_stim_comp12.mp3,60fd8e76456640e5ba259d5f,18,Male,Right handed,2021-07-26_21h07.24.273,MA Experiment 2,2021.1.2,Win32,60.01680471,1,25,59,3,1,,,,,
2.4242,response_1,shortValid,KETTLE,ACROBAT,,,,,,ROBBER,RATTLESNAKE,long,resources/sound/trials/audio_stim_human64.mp3,60fd8e76456640e5ba259d5f,18,Male,Right handed,2021-07-26_21h07.24.273,MA Experiment 2,2021.1.2,Win32,60.01680471,1,26,60,32,1,,,,,
1.774,response_1,,NATIVE,HONEYMOON,,,,,,POISON,REVOLVER,long,resources/sound/catchTrials/audio_control_human_project01.mp3,60fd8e76456640e5ba259d5f,18,Male,Right handed,2021-07-26_21h07.24.273,MA Experiment 2,2021.1.2,Win32,60.01680471,,,,,,0,19,19,25,1
1.5255,response_2,longFoil,HAMMER,EMULSION,,,,,,MARBLE,CUSTOMER,long,resources/sound/trials/audio_stim_comp65.mp3,60fd8e76456640e5ba259d5f,18,Male,Right handed,2021-07-26_21h07.24.273,MA Experiment 2,2021.1.2,Win32,60.01680471,1,27,61,21,1,,,,,
2.2589,response_2,shortValid,BUTTER,GALLERY,,,,,,RECEIPT,LIMOUSINE,long,resources/sound/trials/audio_stim_comp40.mp3,60fd8e76456640e5ba259d5f,18,Male,Right handed,2021-07-26_21h07.24.273,MA Experiment 2,2021.1.2,Win32,60.01680471,1,28,62,19,1,,,,,
0.9751,response_2,shortValid,MOONLIGHT,HEROIN,,,,,,ROBBER,RATTLESNAKE,short,resources/sound/trials/audio_stim_human64.mp3,60fd8e76456640e5ba259d5f,18,Male,Right handed,2021-07-26_21h07.24.273,MA Experiment 2,2021.1.2,Win32,60.01680471,1,29,63,15,1,,,,,
2.5397,response_1,longFoil,NAPKIN,CIGARETTE,,,,,,RUBBER,PROPERTY,short,resources/sound/trials/audio_stim_human0.mp3,60fd8e76456640e5ba259d5f,18,Male,Right handed,2021-07-26_21h07.24.273,MA Experiment 2,2021.1.2,Win32,60.01680471,1,30,64,12,1,,,,,
1.0924,response_2,,MEDICINE,ANTIQUE,,,,,,IRIS,VIOLIN,long,resources/sound/catchTrials/audio_control_comp_project12.mp3,60fd8e76456640e5ba259d5f,18,Male,Right handed,2021-07-26_21h07.24.273,MA Experiment 2,2021.1.2,Win32,60.01680471,,,,,,0,7,7,20,1
1.0096,response_2,longValid,BEETLE,FACTORY,,,,,,MINER,EMERALD,short,resources/sound/trials/audio_stim_human6.mp3,60fd8e76456640e5ba259d5f,18,Male,Right handed,2021-07-26_21h07.24.273,MA Experiment 2,2021.1.2,Win32,60.01680471,1,31,65,13,1,,,,,
1.3919,response_1,shortFoil,PERSON,HURRICANE,,,,,,PAINTER,VEHICLE,short,resources/sound/trials/audio_stim_human47.mp3,60fd8e76456640e5ba259d5f,18,Male,Right handed,2021-07-26_21h07.24.273,MA Experiment 2,2021.1.2,Win32,60.01680471,1,32,66,11,1,,,,,
1.9247,response_2,longValid,DIAL,CABINET,,,,,,BRAINSTORM,GREEN NEEDLE,long,resources/sound/trials/audio_stim_original.mp3,60fd8e76456640e5ba259d5f,18,Male,Right handed,2021-07-26_21h07.24.273,MA Experiment 2,2021.1.2,Win32,60.01680471,1,33,67,33,1,,,,,
1.8761,response_2,longFoil,MORNING,POLIO,,,,,,BRAINSTORM,GREEN NEEDLE,long,resources/sound/trials/audio_stim_original.mp3,60fd8e76456640e5ba259d5f,18,Male,Right handed,2021-07-26_21h07.24.273,MA Experiment 2,2021.1.2,Win32,60.01680471,2,0,68,33,1,,,,,
1.6596,response_1,longFoil,STATION,HEROIN,,,,,,RUBBER,PROPERTY,long,resources/sound/trials/audio_stim_human0.mp3,60fd8e76456640e5ba259d5f,18,Male,Right handed,2021-07-26_21h07.24.273,MA Experiment 2,2021.1.2,Win32,60.01680471,2,1,69,29,1,,,,,
1.3245,response_2,longValid,WIRE,INJURY,,,,,,RECEIPT,LIMOUSINE,long,resources/sound/trials/audio_stim_comp40.mp3,60fd8e76456640e5ba259d5f,18,Male,Right handed,2021-07-26_21h07.24.273,MA Experiment 2,2021.1.2,Win32,60.01680471,2,2,70,19,1,,,,,
1.4586,response_2,,FAIRY,BEVERAGE,,,,,,HOBBY,COLONY,short,resources/sound/catchTrials/audio_control_human_project04.mp3,60fd8e76456640e5ba259d5f,18,Male,Right handed,2021-07-26_21h07.24.273,MA Experiment 2,2021.1.2,Win32,60.01680471,,,,,,0,16,16,11,1
1.942,response_1,shortFoil,KERNEL,PHYSICIAN,,,,,,MARBLE,CUSTOMER,long,resources/sound/trials/audio_stim_comp65.mp3,60fd8e76456640e5ba259d5f,18,Male,Right handed,2021-07-26_21h07.24.273,MA Experiment 2,2021.1.2,Win32,60.01680471,2,3,71,21,1,,,,,
1.2422,response_2,longValid,DIAL,PROJECTOR,,,,,,PARTY,SANCTUARY,short,resources/sound/trials/audio_stim_human50.mp3,60fd8e76456640e5ba259d5f,18,Male,Right handed,2021-07-26_21h07.24.273,MA Experiment 2,2021.1.2,Win32,60.01680471,2,4,72,14,1,,,,,
1.6086,response_1,longValid,KENNEL,ENVELOPE,,,,,,WORKER,VISITOR,long,resources/sound/trials/audio_stim_comp17.mp3,60fd8e76456640e5ba259d5f,18,Male,Right handed,2021-07-26_21h07.24.273,MA Experiment 2,2021.1.2,Win32,60.01680471,2,5,73,23,1,,,,,
1.9246,response_1,shortFoil,SCOOTER,CABINET,,,,,,DRIZZLE,CARDINAL,long,resources/sound/trials/audio_stim_comp69.mp3,60fd8e76456640e5ba259d5f,18,Male,Right handed,2021-07-26_21h07.24.273,MA Experiment 2,2021.1.2,Win32,60.01680471,2,6,74,17,1,,,,,
1.4097,response_2,,WALRUS,INSTRUMENT,,,,,,IRIS,VIOLIN,short,resources/sound/catchTrials/audio_control_comp_project12.mp3,60fd8e76456640e5ba259d5f,18,Male,Right handed,2021-07-26_21h07.24.273,MA Experiment 2,2021.1.2,Win32,60.01680471,,,,,,0,22,22,4,1
1.6085,response_2,longValid,SOFA,SETTLEMENT,,,,,,PARTY,SANCTUARY,long,resources/sound/trials/audio_stim_human50.mp3,60fd8e76456640e5ba259d5f,18,Male,Right handed,2021-07-26_21h07.24.273,MA Experiment 2,2021.1.2,Win32,60.01680471,2,7,75,31,1,,,,,
1.6421,response_1,longValid,DECOY,COMMITTEE,,,,,,DAYLIGHT,MATERIAL,long,resources/sound/trials/audio_stim_human42.mp3,60fd8e76456640e5ba259d5f,18,Male,Right handed,2021-07-26_21h07.24.273,MA Experiment 2,2021.1.2,Win32,60.01680471,2,8,76,26,1,,,,,
1.11,response_1,shortValid,TUMBLE,UMBRELLA,,,,,,RUBBER,PROPERTY,short,resources/sound/trials/audio_stim_human0.mp3,60fd8e76456640e5ba259d5f,18,Male,Right handed,2021-07-26_21h07.24.273,MA Experiment 2,2021.1.2,Win32,60.01680471,2,9,77,12,1,,,,,
1.4083,response_2,longFoil,OFFICE,OPENING,,,,,,PAINTER,VEHICLE,short,resources/sound/trials/audio_stim_human47.mp3,60fd8e76456640e5ba259d5f,18,Male,Right handed,2021-07-26_21h07.24.273,MA Experiment 2,2021.1.2,Win32,60.01680471,2,10,78,11,1,,,,,
1.0756,response_1,,TORTURE,HANDKERCHIEF,,,,,,VIOLET,LUBRICANT,long,resources/sound/catchTrials/audio_control_human_project07.mp3,60fd8e76456640e5ba259d5f,18,Male,Right handed,2021-07-26_21h07.24.273,MA Experiment 2,2021.1.2,Win32,60.01680471,,,,,,0,2,2,28,1
1.4586,response_2,shortFoil,PERSON,ATHLETICS,,,,,,HARDWARE,OVERCOAT,short,resources/sound/trials/audio_stim_human35.mp3,60fd8e76456640e5ba259d5f,18,Male,Right handed,2021-07-26_21h07.24.273,MA Experiment 2,2021.1.2,Win32,60.01680471,2,11,79,8,1,,,,,
1.2915,response_2,shortFoil,OLIVE,FISHERMAN,,,,,,CONCRETE,ENEMY,short,resources/sound/trials/audio_stim_human67.mp3,60fd8e76456640e5ba259d5f,18,Male,Right handed,2021-07-26_21h07.24.273,MA Experiment 2,2021.1.2,Win32,60.01680471,2,12,80,10,1,,,,,
1.7424,response_1,longFoil,NAPKIN,HEADQUARTERS,,,,,,ATHLETE,IVORY,short,resources/sound/trials/audio_stim_comp57.mp3,60fd8e76456640e5ba259d5f,18,Male,Right handed,2021-07-26_21h07.24.273,MA Experiment 2,2021.1.2,Win32,60.01680471,2,13,81,5,1,,,,,
1.5744,response_1,shortFoil,DUEL,HOSPITAL,,,,,,WHISTLE,TREASURER,long,resources/sound/trials/audio_stim_comp12.mp3,60fd8e76456640e5ba259d5f,18,Male,Right handed,2021-07-26_21h07.24.273,MA Experiment 2,2021.1.2,Win32,60.01680471,2,14,82,20,1,,,,,
1.0933,response_1,,CRYSTAL,CONVENTION,,,,,,JUGGLER,DANDELION,long,resources/sound/catchTrials/audio_control_human_project09.mp3,60fd8e76456640e5ba259d5f,18,Male,Right handed,2021-07-26_21h07.24.273,MA Experiment 2,2021.1.2,Win32,60.01680471,,,,,,0,0,0,31,1
2.1915,response_1,shortValid,DWELLER,TANGERINE,,,,,,RECEIPT,LIMOUSINE,short,resources/sound/trials/audio_stim_comp40.mp3,60fd8e76456640e5ba259d5f,18,Male,Right handed,2021-07-26_21h07.24.273,MA Experiment 2,2021.1.2,Win32,60.01680471,2,15,83,2,1,,,,,
1.2587,response_1,shortValid,NOVEL,CATHEDRAL,,,,,,DRIZZLE,CARDINAL,short,resources/sound/trials/audio_stim_comp69.mp3,60fd8e76456640e5ba259d5f,18,Male,Right handed,2021-07-26_21h07.24.273,MA Experiment 2,2021.1.2,Win32,60.01680471,2,16,84,0,1,,,,,
1.8256,response_1,shortFoil,POLO,CORRIDOR,,,,,,MINER,EMERALD,short,resources/sound/trials/audio_stim_human6.mp3,60fd8e76456640e5ba259d5f,18,Male,Right handed,2021-07-26_21h07.24.273,MA Experiment 2,2021.1.2,Win32,60.01680471,2,17,85,13,1,,,,,
1.2093,response_2,longFoil,NEIGHBOUR,ACROBAT,,,,,,ROBBER,RATTLESNAKE,long,resources/sound/trials/audio_stim_human64.mp3,60fd8e76456640e5ba259d5f,18,Male,Right handed,2021-07-26_21h07.24.273,MA Experiment 2,2021.1.2,Win32,60.01680471,2,18,86,32,1,,,,,
1.3257,response_2,,WINDOW,ALPHABET,,,,,,IRIS,VIOLIN,short,resources/sound/catchTrials/audio_control_human_project12.mp3,60fd8e76456640e5ba259d5f,18,Male,Right handed,2021-07-26_21h07.24.273,MA Experiment 2,2021.1.2,Win32,60.01680471,,,,,,0,15,15,8,1
2.3757,response_2,longFoil,MURDER,INSTRUCTOR,,,,,,PAINTER,VEHICLE,long,resources/sound/trials/audio_stim_human47.mp3,60fd8e76456640e5ba259d5f,18,Male,Right handed,2021-07-26_21h07.24.273,MA Experiment 2,2021.1.2,Win32,60.01680471,2,19,87,28,1,,,,,
2.1741,response_1,longFoil,MEDICINE,INDUSTRY,,,,,,WORKER,VISITOR,short,resources/sound/trials/audio_stim_comp17.mp3,60fd8e76456640e5ba259d5f,18,Male,Right handed,2021-07-26_21h07.24.273,MA Experiment 2,2021.1.2,Win32,60.01680471,2,20,88,6,1,,,,,
1.476,response_2,shortFoil,VILLAGE,STRAWBERRY,,,,,,SACRED,GALAXY,short,resources/sound/trials/audio_stim_comp1.mp3,60fd8e76456640e5ba259d5f,18,Male,Right handed,2021-07-26_21h07.24.273,MA Experiment 2,2021.1.2,Win32,60.01680471,2,21,89,7,1,,,,,
3.0237,response_1,shortValid,RUSTY,OXYGEN,,,,,,MINER,EMERALD,long,resources/sound/trials/audio_stim_human6.mp3,60fd8e76456640e5ba259d5f,18,Male,Right handed,2021-07-26_21h07.24.273,MA Experiment 2,2021.1.2,Win32,60.01680471,2,22,90,30,1,,,,,
1.242,response_2,,MORNING,ORNAMENT,,,,,,CORNER,ENGINEER,long,resources/sound/catchTrials/audio_control_comp_project14.mp3,60fd8e76456640e5ba259d5f,18,Male,Right handed,2021-07-26_21h07.24.273,MA Experiment 2,2021.1.2,Win32,60.01680471,,,,,,0,26,26,17,1
1.641,response_1,longValid,CAPTAIN,PROFESSOR,,,,,,MINER,EMERALD,long,resources/sound/trials/audio_stim_comp6.mp3,60fd8e76456640e5ba259d5f,18,Male,Right handed,2021-07-26_21h07.24.273,MA Experiment 2,2021.1.2,Win32,60.01680471,2,23,91,18,1,,,,,
1.3753,response_2,shortValid,ACRE,CANDLELIGHT,,,,,,HARDWARE,OVERCOAT,long,resources/sound/trials/audio_stim_human35.mp3,60fd8e76456640e5ba259d5f,18,Male,Right handed,2021-07-26_21h07.24.273,MA Experiment 2,2021.1.2,Win32,60.01680471,2,24,92,25,1,,,,,
1.3436,response_2,longValid,INVOICE,DESTROYER,,,,,,MARBLE,CUSTOMER,short,resources/sound/trials/audio_stim_comp65.mp3,60fd8e76456640e5ba259d5f,18,Male,Right handed,2021-07-26_21h07.24.273,MA Experiment 2,2021.1.2,Win32,60.01680471,2,25,93,4,1,,,,,
1.7587,response_1,shortFoil,TEMPLE,CROCODILE,,,,,,WHISTLE,TREASURER,short,resources/sound/trials/audio_stim_comp12.mp3,60fd8e76456640e5ba259d5f,18,Male,Right handed,2021-07-26_21h07.24.273,MA Experiment 2,2021.1.2,Win32,60.01680471,2,26,94,3,1,,,,,
2.1738,response_2,,STOCKING,HONEYMOON,,,,,,NAVY,RECTANGLE,short,resources/sound/catchTrials/audio_control_human_project06.mp3,60fd8e76456640e5ba259d5f,18,Male,Right handed,2021-07-26_21h07.24.273,MA Experiment 2,2021.1.2,Win32,60.01680471,,,,,,0,12,12,14,1
2.1583,response_4,longFoil,PATIENT,GALLERY,,,,,,SACRED,GALAXY,long,resources/sound/trials/audio_stim_comp1.mp3,60fd8e76456640e5ba259d5f,18,Male,Right handed,2021-07-26_21h07.24.273,MA Experiment 2,2021.1.2,Win32,60.01680471,2,27,95,24,1,,,,,
1.5753,response_2,longValid,LOBSTER,MERCURY,,,,,,ROBBER,RATTLESNAKE,short,resources/sound/trials/audio_stim_human64.mp3,60fd8e76456640e5ba259d5f,18,Male,Right handed,2021-07-26_21h07.24.273,MA Experiment 2,2021.1.2,Win32,60.01680471,2,28,96,15,1,,,,,
1.4265,response_1,longFoil,SEGMENT,ATTENDANT,,,,,,ATHLETE,IVORY,long,resources/sound/trials/audio_stim_comp57.mp3,60fd8e76456640e5ba259d5f,18,Male,Right handed,2021-07-26_21h07.24.273,MA Experiment 2,2021.1.2,Win32,60.01680471,2,29,97,22,1,,,,,
2.108,response_1,shortFoil,EVENING,CINNAMON,,,,,,DAYLIGHT,MATERIAL,short,resources/sound/trials/audio_stim_human42.mp3,60fd8e76456640e5ba259d5f,18,Male,Right handed,2021-07-26_21h07.24.273,MA Experiment 2,2021.1.2,Win32,60.01680471,2,30,98,9,1,,,,,
1.3427,response_2,,PICTURE,FIREWOOD,,,,,,IRIS,VIOLIN,long,resources/sound/catchTrials/audio_control_human_project12.mp3,60fd8e76456640e5ba259d5f,18,Male,Right handed,2021-07-26_21h07.24.273,MA Experiment 2,2021.1.2,Win32,60.01680471,,,,,,0,1,1,24,1
,,shortValid,FATHER,SAXOPHONE,,,,,,BRAINSTORM,GREEN NEEDLE,short,resources/sound/trials/audio_stim_original.mp3,60fd8e76456640e5ba259d5f,18,Male,Right handed,2021-07-26_21h07.24.273,MA Experiment 2,2021.1.2,Win32,60.01680471,2,31,99,16,1,,,,,
0.9753,response_2,longValid,SHOULDER,ADMIRAL,,,,,,MINER,EMERALD,short,resources/sound/trials/audio_stim_comp6.mp3,60fd8e76456640e5ba259d5f,18,Male,Right handed,2021-07-26_21h07.24.273,MA Experiment 2,2021.1.2,Win32,60.01680471,2,32,100,1,1,,,,,
1.2927,response_1,shortValid,DIVING,HURRICANE,,,,,,CONCRETE,ENEMY,long,resources/sound/trials/audio_stim_human67.mp3,60fd8e76456640e5ba259d5f,18,Male,Right handed,2021-07-26_21h07.24.273,MA Experiment 2,2021.1.2,Win32,60.01680471,2,33,101,27,1,,,,,
1.5424,response_2,shortFoil,CABIN,MESSENGER,,,,,,BRAINSTORM,GREEN NEEDLE,long,resources/sound/trials/audio_stim_original.mp3,60fd8e76456640e5ba259d5f,18,Male,Right handed,2021-07-26_21h07.24.273,MA Experiment 2,2021.1.2,Win32,60.01680471,3,0,102,33,1,,,,,
1.4395,response_1,shortFoil,FERTILE,RETAILER,,,,,,DRIZZLE,CARDINAL,short,resources/sound/trials/audio_stim_comp69.mp3,60fd8e76456640e5ba259d5f,18,Male,Right handed,2021-07-26_21h07.24.273,MA Experiment 2,2021.1.2,Win32,60.01680471,3,1,103,0,1,,,,,
1.2586,response_2,longValid,LIQUID,CITIZEN,,,,,,RUBBER,PROPERTY,short,resources/sound/trials/audio_stim_human0.mp3,60fd8e76456640e5ba259d5f,18,Male,Right handed,2021-07-26_21h07.24.273,MA Experiment 2,2021.1.2,Win32,60.01680471,3,2,104,12,1,,,,,
1.4088,response_2,,SADDLE,CHOCOLATE,,,,,,NAVY,RECTANGLE,short,resources/sound/catchTrials/audio_control_comp_project06.mp3,60fd8e76456640e5ba259d5f,18,Male,Right handed,2021-07-26_21h07.24.273,MA Experiment 2,2021.1.2,Win32,60.01680471,,,,,,0,29,29,6,1
1.6593,response_1,shortFoil,NURSERY,PROPELLER,,,,,,RECEIPT,LIMOUSINE,long,resources/sound/trials/audio_stim_comp40.mp3,60fd8e76456640e5ba259d5f,18,Male,Right handed,2021-07-26_21h07.24.273,MA Experiment 2,2021.1.2,Win32,60.01680471,3,3,105,19,1,,,,,
1.1259,response_1,longValid,JURY,SPECIALIST,,,,,,DRIZZLE,CARDINAL,long,resources/sound/trials/audio_stim_comp69.mp3,60fd8e76456640e5ba259d5f,18,Male,Right handed,2021-07-26_21h07.24.273,MA Experiment 2,2021.1.2,Win32,60.01680471,3,4,106,17,1,,,,,
1.0926,response_1,shortValid,HURDLE,CAPITAL,,,,,,SACRED,GALAXY,short,resources/sound/trials/audio_stim_comp1.mp3,60fd8e76456640e5ba259d5f,18,Male,Right handed,2021-07-26_21h07.24.273,MA Experiment 2,2021.1.2,Win32,60.01680471,3,5,107,7,1,,,,,
1.0261,response_1,shortValid,VALLEY,POLICEMAN,,,,,,ATHLETE,IVORY,short,resources/sound/trials/audio_stim_comp57.mp3,60fd8e76456640e5ba259d5f,18,Male,Right handed,2021-07-26_21h07.24.273,MA Experiment 2,2021.1.2,Win32,60.01680471,3,6,108,5,1,,,,,
1.3594,response_2,,BERRY,GYMNASTICS,,,,,,NAVY,RECTANGLE,long,resources/sound/catchTrials/audio_control_human_project06.mp3,60fd8e76456640e5ba259d5f,18,Male,Right handed,2021-07-26_21h07.24.273,MA Experiment 2,2021.1.2,Win32,60.01680471,,,,,,0,17,17,30,1
1.2923,response_2,longValid,SINGER,POLIO,,,,,,SACRED,GALAXY,long,resources/sound/trials/audio_stim_comp1.mp3,60fd8e76456640e5ba259d5f,18,Male,Right handed,2021-07-26_21h07.24.273,MA Experiment 2,2021.1.2,Win32,60.01680471,3,7,109,24,1,,,,,
3.2407,response_2,shortValid,BISHOP,DIAMOND,,,,,,WHISTLE,TREASURER,long,resources/sound/trials/audio_stim_comp12.mp3,60fd8e76456640e5ba259d5f,18,Male,Right handed,2021-07-26_21h07.24.273,MA Experiment 2,2021.1.2,Win32,60.01680471,3,8,110,20,1,,,,,
1.6413,response_1,shortValid,PIPING,GRASSHOPPER,,,,,,RUBBER,PROPERTY,long,resources/sound/trials/audio_stim_human0.mp3,60fd8e76456640e5ba259d5f,18,Male,Right handed,2021-07-26_21h07.24.273,MA Experiment 2,2021.1.2,Win32,60.01680471,3,9,111,29,1,,,,,
1.2103,response_1,longFoil,EARTHWORM,LECTURER,,,,,,MINER,EMERALD,long,resources/sound/trials/audio_stim_comp6.mp3,60fd8e76456640e5ba259d5f,18,Male,Right handed,2021-07-26_21h07.24.273,MA Experiment 2,2021.1.2,Win32,60.01680471,3,10,112,18,1,,,,,
1.3589,response_1,,NECKLACE,BUTTERFLY,,,,,,POISON,REVOLVER,short,resources/sound/catchTrials/audio_control_human_project01.mp3,60fd8e76456640e5ba259d5f,18,Male,Right handed,2021-07-26_21h07.24.273,MA Experiment 2,2021.1.2,Win32,60.01680471,,,,,,0,20,20,9,1
2.7915,response_1,shortValid,NATIVE,ICICLE,,,,,,WHISTLE,TREASURER,short,resources/sound/trials/audio_stim_comp12.mp3,60fd8e76456640e5ba259d5f,18,Male,Right handed,2021-07-26_21h07.24.273,MA Experiment 2,2021.1.2,Win32,60.01680471,3,11,113,3,1,,,,,
1.6085,response_2,longValid,PRINCESS,MICROSCOPE,,,,,,MINER,EMERALD,long,resources/sound/trials/audio_stim_human6.mp3,60fd8e76456640e5ba259d5f,18,Male,Right handed,2021-07-26_21h07.24.273,MA Experiment 2,2021.1.2,Win32,60.01680471,3,12,114,30,1,,,,,
2.0445,response_2,shortValid,TRAITOR,GORILLA,,,,,,MINER,EMERALD,short,resources/sound/trials/audio_stim_human6.mp3,60fd8e76456640e5ba259d5f,18,Male,Right handed,2021-07-26_21h07.24.273,MA Experiment 2,2021.1.2,Win32,60.01680471,3,13,115,13,1,,,,,
1.642,response_2,longValid,INCOME,TEMPERATURE,,,,,,CONCRETE,ENEMY,long,resources/sound/trials/audio_stim_human67.mp3,60fd8e76456640e5ba259d5f,18,Male,Right handed,2021-07-26_21h07.24.273,MA Experiment 2,2021.1.2,Win32,60.01680471,3,14,116,27,1,,,,,
1.4429,response_2,,GIRDLE,POTATO,,,,,,CORNER,ENGINEER,long,resources/sound/catchTrials/audio_control_human_project14.mp3,60fd8e76456640e5ba259d5f,18,Male,Right handed,2021-07-26_21h07.24.273,MA Experiment 2,2021.1.2,Win32,60.01680471,,,,,,0,8,8,26,1
1.4243,response_2,longValid,DOORWAY,CLARINET,,,,,,HARDWARE,OVERCOAT,long,resources/sound/trials/audio_stim_human35.mp3,60fd8e76456640e5ba259d5f,18,Male,Right handed,2021-07-26_21h07.24.273,MA Experiment 2,2021.1.2,Win32,60.01680471,3,15,117,25,1,,,,,
2.5738,response_2,shortValid,WAFER,ALCOHOL,,,,,,CONCRETE,ENEMY,short,resources/sound/trials/audio_stim_human67.mp3,60fd8e76456640e5ba259d5f,18,Male,Right handed,2021-07-26_21h07.24.273,MA Experiment 2,2021.1.2,Win32,60.01680471,3,16,118,10,1,,,,,
2.7418,response_1,shortValid,VESSEL,ABDOMEN,,,,,,PARTY,SANCTUARY,short,resources/sound/trials/audio_stim_human50.mp3,60fd8e76456640e5ba259d5f,18,Male,Right handed,2021-07-26_21h07.24.273,MA Experiment 2,2021.1.2,Win32,60.01680471,3,17,119,14,1,,,,,
1.1262,response_2,longValid,CURFEW,MOSQUITO,,,,,,ROBBER,RATTLESNAKE,long,resources/sound/trials/audio_stim_human64.mp3,60fd8e76456640e5ba259d5f,18,Male,Right handed,2021-07-26_21h07.24.273,MA Experiment 2,2021.1.2,Win32,60.01680471,3,18,120,32,1,,,,,
1.3593,response_1,,WRITING,MEDICINE,,,,,,VIOLET,LUBRICANT,short,resources/sound/catchTrials/audio_control_human_project07.mp3,60fd8e76456640e5ba259d5f,18,Male,Right handed,2021-07-26_21h07.24.273,MA Experiment 2,2021.1.2,Win32,60.01680471,,,,,,0,18,18,12,1
1.4251,response_2,shortValid,HAMMER,MINISTER,,,,,,PAINTER,VEHICLE,short,resources/sound/trials/audio_stim_human47.mp3,60fd8e76456640e5ba259d5f,18,Male,Right handed,2021-07-26_21h07.24.273,MA Experiment 2,2021.1.2,Win32,60.01680471,3,19,121,11,1,,,,,
1.7086,response_2,longFoil,MISTRESS,INTERVIEW,,,,,,MINER,EMERALD,short,resources/sound/trials/audio_stim_comp6.mp3,60fd8e76456640e5ba259d5f,18,Male,Right handed,2021-07-26_21h07.24.273,MA Experiment 2,2021.1.2,Win32,60.01680471,3,20,122,1,1,,,,,
1.5264,response_2,shortValid,UNCLE,DISSECTION,,,,,,HARDWARE,OVERCOAT,short,resources/sound/trials/audio_stim_human35.mp3,60fd8e76456640e5ba259d5f,18,Male,Right handed,2021-07-26_21h07.24.273,MA Experiment 2,2021.1.2,Win32,60.01680471,3,21,123,8,1,,,,,
1.3918,response_2,shortFoil,MEASLES,MINERAL,,,,,,PAINTER,VEHICLE,long,resources/sound/trials/audio_stim_human47.mp3,60fd8e76456640e5ba259d5f,18,Male,Right handed,2021-07-26_21h07.24.273,MA Experiment 2,2021.1.2,Win32,60.01680471,3,22,124,28,1,,,,,
1.6907,response_2,,HAMSTER,APPLIANCE,,,,,,NAVY,RECTANGLE,long,resources/sound/catchTrials/audio_control_comp_project06.mp3,60fd8e76456640e5ba259d5f,18,Male,Right handed,2021-07-26_21h07.24.273,MA Experiment 2,2021.1.2,Win32,60.01680471,,,,,,0,31,31,22,1
1.5096,response_1,shortValid,CEREAL,EMULSION,,,,,,WORKER,VISITOR,short,resources/sound/trials/audio_stim_comp17.mp3,60fd8e76456640e5ba259d5f,18,Male,Right handed,2021-07-26_21h07.24.273,MA Experiment 2,2021.1.2,Win32,60.01680471,3,23,125,6,1,,,,,
1.2432,response_1,longValid,LEADER,FAMILY,,,,,,ATHLETE,IVORY,long,resources/sound/trials/audio_stim_comp57.mp3,60fd8e76456640e5ba259d5f,18,Male,Right handed,2021-07-26_21h07.24.273,MA Experiment 2,2021.1.2,Win32,60.01680471,3,24,126,22,1,,,,,
1.4252,response_2,longFoil,CHIPMUNK,AVENUE,,,,,,BRAINSTORM,GREEN NEEDLE,short,resources/sound/trials/audio_stim_original.mp3,60fd8e76456640e5ba259d5f,18,Male,Right handed,2021-07-26_21h07.24.273,MA Experiment 2,2021.1.2,Win32,60.01680471,3,25,127,16,1,,,,,
1.4755,response_1,shortFoil,FOREARM,INSTITUTE,,,,,,MARBLE,CUSTOMER,short,resources/sound/trials/audio_stim_comp65.mp3,60fd8e76456640e5ba259d5f,18,Male,Right handed,2021-07-26_21h07.24.273,MA Experiment 2,2021.1.2,Win32,60.01680471,3,26,128,4,1,,,,,
1.2767,response_2,,MOONLIGHT,ENAMEL,,,,,,SPINACH,APRICOT,short,resources/sound/catchTrials/audio_control_comp_project18.mp3,60fd8e76456640e5ba259d5f,18,Male,Right handed,2021-07-26_21h07.24.273,MA Experiment 2,2021.1.2,Win32,60.01680471,,,,,,0,10,10,5,1
2.8749,response_1,longFoil,BEETLE,MECHANIC,,,,,,DAYLIGHT,MATERIAL,short,resources/sound/trials/audio_stim_human42.mp3,60fd8e76456640e5ba259d5f,18,Male,Right handed,2021-07-26_21h07.24.273,MA Experiment 2,2021.1.2,Win32,60.01680471,3,27,129,9,1,,,,,
1.2598,response_1,shortFoil,CIGAR,GINGERBREAD,,,,,,WORKER,VISITOR,long,resources/sound/trials/audio_stim_comp17.mp3,60fd8e76456640e5ba259d5f,18,Male,Right handed,2021-07-26_21h07.24.273,MA Experiment 2,2021.1.2,Win32,60.01680471,3,28,130,23,1,,,,,
1.4767,response_1,shortValid,HARBOUR,VINEGAR,,,,,,PARTY,SANCTUARY,long,resources/sound/trials/audio_stim_human50.mp3,60fd8e76456640e5ba259d5f,18,Male,Right handed,2021-07-26_21h07.24.273,MA Experiment 2,2021.1.2,Win32,60.01680471,3,29,131,31,1,,,,,
1.693,response_2,shortFoil,VAPOUR,LEMONADE,,,,,,ROBBER,RATTLESNAKE,short,resources/sound/trials/audio_stim_human64.mp3,60fd8e76456640e5ba259d5f,18,Male,Right handed,2021-07-26_21h07.24.273,MA Experiment 2,2021.1.2,Win32,60.01680471,3,30,132,15,1,,,,,
1.3235,response_2,,SODA,AMMONIA,,,,,,ICY,JITTERBUG,short,resources/sound/catchTrials/audio_control_comp_project08.mp3,60fd8e76456640e5ba259d5f,18,Male,Right handed,2021-07-26_21h07.24.273,MA Experiment 2,2021.1.2,Win32,60.01680471,,,,,,0,24,24,7,1
2.0074,response_1,shortFoil,SHEEPSKIN,GOVERNMENT,,,,,,DAYLIGHT,MATERIAL,long,resources/sound/trials/audio_stim_human42.mp3,60fd8e76456640e5ba259d5f,18,Male,Right handed,2021-07-26_21h07.24.273,MA Experiment 2,2021.1.2,Win32,60.01680471,3,31,133,26,1,,,,,
1.2088,response_2,longValid,ANCHOR,REFEREE,,,,,,MARBLE,CUSTOMER,long,resources/sound/trials/audio_stim_comp65.mp3,60fd8e76456640e5ba259d5f,18,Male,Right handed,2021-07-26_21h07.24.273,MA Experiment 2,2021.1.2,Win32,60.01680471,3,32,134,21,1,,,,,
2.458,response_1,longFoil,PODIUM,ASBESTOS,,,,,,RECEIPT,LIMOUSINE,short,resources/sound/trials/audio_stim_comp40.mp3,60fd8e76456640e5ba259d5f,18,Male,Right handed,2021-07-26_21h07.24.273,MA Experiment 2,2021.1.2,Win32,60.01680471,3,33,135,2,1,,,,,
