response.time,response,cueTarget,rand_foil_1,rand_foil_2,prac_trials.thisRepN,prac_trials.thisTrialN,prac_trials.thisN,prac_trials.thisIndex,prac_trials.ran,word_1,word_2,cue,file_path,participant,age,gender,handedness,date,expName,psychopyVersion,OS,frameRate,trials.thisRepN,trials.thisTrialN,trials.thisN,trials.thisIndex,trials.ran,catchTrials.thisRepN,catchTrials.thisTrialN,catchTrials.thisN,catchTrials.thisIndex,catchTrials.ran
1.7,response_2,longValid,PODIUM,INFECTION,0,0,0,6,1,VACANT,SALVATION,long,resources/sound/prac_trials/practice_cue6.mp3,60fd4227a0da73a530f9c5a7,21,Female,Right handed,2021-07-26_20h45.38.792,MA Experiment 2,2021.1.2,MacIntel,55.55555556,,,,,,,,,,
1.305,response_1,shortFoil,STOCKING,MESSENGER,0,1,1,0,1,AARDVARK,FALLACY,short,resources/sound/prac_trials/practice_cue0.mp3,60fd4227a0da73a530f9c5a7,21,Female,Right handed,2021-07-26_20h45.38.792,MA Experiment 2,2021.1.2,MacIntel,55.55555556,,,,,,,,,,
3.433,response_1,shortFoil,ANCHOR,CHOCOLATE,0,2,2,1,1,CABLE,REPUBLIC,short,resources/sound/prac_trials/practice_cue_human1.mp3,60fd4227a0da73a530f9c5a7,21,Female,Right handed,2021-07-26_20h45.38.792,MA Experiment 2,2021.1.2,MacIntel,55.55555556,,,,,,,,,,
2.188,response_2,shortFoil,MISTRESS,MINISTER,0,3,3,4,1,FIZZY,ELECTRIC,short,resources/sound/prac_trials/practice_cue4.mp3,60fd4227a0da73a530f9c5a7,21,Female,Right handed,2021-07-26_20h45.38.792,MA Experiment 2,2021.1.2,MacIntel,55.55555556,,,,,,,,,,
1.022,response_2,longValid,MURAL,ADMIRAL,0,4,4,5,1,NONSENSE,OASIS,short,resources/sound/prac_trials/practice_cue_human5.mp3,60fd4227a0da73a530f9c5a7,21,Female,Right handed,2021-07-26_20h45.38.792,MA Experiment 2,2021.1.2,MacIntel,55.55555556,,,,,,,,,,
1.042,response_2,longFoil,LOBSTER,FURNITURE,0,5,5,9,1,GRUMPY,LABYRINTH,long,resources/sound/prac_trials/practice_cue_human9.mp3,60fd4227a0da73a530f9c5a7,21,Female,Right handed,2021-07-26_20h45.38.792,MA Experiment 2,2021.1.2,MacIntel,55.55555556,,,,,,,,,,
1.353,response_2,shortValid,WIRE,HONEYMOON,0,6,6,2,1,RECENT,TOBACCO,short,resources/sound/prac_trials/practice_cue2.mp3,60fd4227a0da73a530f9c5a7,21,Female,Right handed,2021-07-26_20h45.38.792,MA Experiment 2,2021.1.2,MacIntel,55.55555556,,,,,,,,,,
1.661,response_2,longValid,CEREAL,MOSQUITO,0,7,7,10,1,SAFFRON,JAVELIN,long,resources/sound/prac_trials/practice_cue10.mp3,60fd4227a0da73a530f9c5a7,21,Female,Right handed,2021-07-26_20h45.38.792,MA Experiment 2,2021.1.2,MacIntel,55.55555556,,,,,,,,,,
0.92,response_2,longValid,WRITING,NEWSPAPER,0,8,8,7,1,BUCKLE,WALLABY,long,resources/sound/prac_trials/practice_cue_human7.mp3,60fd4227a0da73a530f9c5a7,21,Female,Right handed,2021-07-26_20h45.38.792,MA Experiment 2,2021.1.2,MacIntel,55.55555556,,,,,,,,,,
1.285,response_2,longFoil,PERSON,ORNAMENT,0,9,9,11,1,KETCHUP,GONDOLA,long,resources/sound/prac_trials/practice_cue_human11.mp3,60fd4227a0da73a530f9c5a7,21,Female,Right handed,2021-07-26_20h45.38.792,MA Experiment 2,2021.1.2,MacIntel,55.55555556,,,,,,,,,,
1.453,response_2,longFoil,MEASLES,ABDOMEN,0,10,10,3,1,EAGER,QUALIFY,short,resources/sound/prac_trials/practice_cue_human3.mp3,60fd4227a0da73a530f9c5a7,21,Female,Right handed,2021-07-26_20h45.38.792,MA Experiment 2,2021.1.2,MacIntel,55.55555556,,,,,,,,,,
1.636,response_1,longValid,PIPING,CINNAMON,0,11,11,8,1,DAGGER,EMPHASIS,long,resources/sound/prac_trials/practice_cue8.mp3,60fd4227a0da73a530f9c5a7,21,Female,Right handed,2021-07-26_20h45.38.792,MA Experiment 2,2021.1.2,MacIntel,55.55555556,,,,,,,,,,
1.372,response_1,longValid,FERTILE,MEDICINE,,,,,,WORKER,VISITOR,long,resources/sound/trials/audio_stim_comp17.mp3,60fd4227a0da73a530f9c5a7,21,Female,Right handed,2021-07-26_20h45.38.792,MA Experiment 2,2021.1.2,MacIntel,55.55555556,0,0,0,23,1,,,,,
1.514,response_1,longFoil,LIGHTNING,ENVELOPE,,,,,,MINER,EMERALD,long,resources/sound/trials/audio_stim_human6.mp3,60fd4227a0da73a530f9c5a7,21,Female,Right handed,2021-07-26_20h45.38.792,MA Experiment 2,2021.1.2,MacIntel,55.55555556,0,1,1,30,1,,,,,
1.521,response_1,shortValid,MURDER,COMMITTEE,,,,,,MARBLE,CUSTOMER,long,resources/sound/trials/audio_stim_comp65.mp3,60fd4227a0da73a530f9c5a7,21,Female,Right handed,2021-07-26_20h45.38.792,MA Experiment 2,2021.1.2,MacIntel,55.55555556,0,2,2,21,1,,,,,
1.041,response_2,,VAPOUR,INSTRUCTOR,,,,,,HOBBY,COLONY,short,resources/sound/catchTrials/audio_control_comp_project04.mp3,60fd4227a0da73a530f9c5a7,21,Female,Right handed,2021-07-26_20h45.38.792,MA Experiment 2,2021.1.2,MacIntel,55.55555556,,,,,,0,1,1,2,1
1.51,response_2,shortFoil,DECOY,MECHANIC,,,,,,HARDWARE,OVERCOAT,long,resources/sound/trials/audio_stim_human35.mp3,60fd4227a0da73a530f9c5a7,21,Female,Right handed,2021-07-26_20h45.38.792,MA Experiment 2,2021.1.2,MacIntel,55.55555556,0,3,3,25,1,,,,,
1.306,response_1,shortValid,KENNEL,GRASSHOPPER,,,,,,DRIZZLE,CARDINAL,long,resources/sound/trials/audio_stim_comp69.mp3,60fd4227a0da73a530f9c5a7,21,Female,Right handed,2021-07-26_20h45.38.792,MA Experiment 2,2021.1.2,MacIntel,55.55555556,0,4,4,17,1,,,,,
1.519,response_1,shortFoil,NECKLACE,NEIGHBOURHOOD,,,,,,WHISTLE,TREASURER,short,resources/sound/trials/audio_stim_comp12.mp3,60fd4227a0da73a530f9c5a7,21,Female,Right handed,2021-07-26_20h45.38.792,MA Experiment 2,2021.1.2,MacIntel,55.55555556,0,5,5,3,1,,,,,
1.45,response_2,longValid,TEMPLE,OXYGEN,,,,,,MINER,EMERALD,short,resources/sound/trials/audio_stim_human6.mp3,60fd4227a0da73a530f9c5a7,21,Female,Right handed,2021-07-26_20h45.38.792,MA Experiment 2,2021.1.2,MacIntel,55.55555556,0,6,6,13,1,,,,,
1.42,response_1,,FATHER,FAMILY,,,,,,VIOLET,LUBRICANT,long,resources/sound/catchTrials/audio_control_comp_project07.mp3,60fd4227a0da73a530f9c5a7,21,Female,Right handed,2021-07-26_20h45.38.792,MA Experiment 2,2021.1.2,MacIntel,55.55555556,,,,,,0,14,14,19,1
1.421,response_2,shortValid,SULPHUR,POTATO,,,,,,PAINTER,VEHICLE,short,resources/sound/trials/audio_stim_human47.mp3,60fd4227a0da73a530f9c5a7,21,Female,Right handed,2021-07-26_20h45.38.792,MA Experiment 2,2021.1.2,MacIntel,55.55555556,0,7,7,11,1,,,,,
1.382,response_2,shortValid,PRINCESS,POLICEMAN,,,,,,PARTY,SANCTUARY,short,resources/sound/trials/audio_stim_human50.mp3,60fd4227a0da73a530f9c5a7,21,Female,Right handed,2021-07-26_20h45.38.792,MA Experiment 2,2021.1.2,MacIntel,55.55555556,0,8,8,14,1,,,,,
1.612,response_2,shortFoil,RABBI,ACROBAT,,,,,,RECEIPT,LIMOUSINE,long,resources/sound/trials/audio_stim_comp40.mp3,60fd4227a0da73a530f9c5a7,21,Female,Right handed,2021-07-26_20h45.38.792,MA Experiment 2,2021.1.2,MacIntel,55.55555556,0,9,9,19,1,,,,,
1.757,response_2,longFoil,VESSEL,PHOTOGRAPH,,,,,,DAYLIGHT,MATERIAL,long,resources/sound/trials/audio_stim_human42.mp3,60fd4227a0da73a530f9c5a7,21,Female,Right handed,2021-07-26_20h45.38.792,MA Experiment 2,2021.1.2,MacIntel,55.55555556,0,10,10,26,1,,,,,
1.004,response_2,,ACRE,PROPELLER,,,,,,ICY,JITTERBUG,short,resources/sound/catchTrials/audio_control_comp_project08.mp3,60fd4227a0da73a530f9c5a7,21,Female,Right handed,2021-07-26_20h45.38.792,MA Experiment 2,2021.1.2,MacIntel,55.55555556,,,,,,0,10,10,7,1
1.102,response_1,longValid,BURNER,HEROIN,,,,,,CONCRETE,ENEMY,short,resources/sound/trials/audio_stim_human67.mp3,60fd4227a0da73a530f9c5a7,21,Female,Right handed,2021-07-26_20h45.38.792,MA Experiment 2,2021.1.2,MacIntel,55.55555556,0,11,11,10,1,,,,,
1.221,response_1,longFoil,TUMBLE,DIAMOND,,,,,,ATHLETE,IVORY,long,resources/sound/trials/audio_stim_comp57.mp3,60fd4227a0da73a530f9c5a7,21,Female,Right handed,2021-07-26_20h45.38.792,MA Experiment 2,2021.1.2,MacIntel,55.55555556,0,12,12,22,1,,,,,
1.27,response_2,longFoil,MUSCLE,FACTORY,,,,,,SACRED,GALAXY,long,resources/sound/trials/audio_stim_comp1.mp3,60fd4227a0da73a530f9c5a7,21,Female,Right handed,2021-07-26_20h45.38.792,MA Experiment 2,2021.1.2,MacIntel,55.55555556,0,13,13,24,1,,,,,
1.68,response_1,longFoil,DWELLER,SAXOPHONE,,,,,,DAYLIGHT,MATERIAL,short,resources/sound/trials/audio_stim_human42.mp3,60fd4227a0da73a530f9c5a7,21,Female,Right handed,2021-07-26_20h45.38.792,MA Experiment 2,2021.1.2,MacIntel,55.55555556,0,14,14,9,1,,,,,
1.125,response_2,,GIRDLE,TEMPERATURE,,,,,,IRIS,VIOLIN,short,resources/sound/catchTrials/audio_control_human_project12.mp3,60fd4227a0da73a530f9c5a7,21,Female,Right handed,2021-07-26_20h45.38.792,MA Experiment 2,2021.1.2,MacIntel,55.55555556,,,,,,0,16,16,8,1
1.681,response_2,shortFoil,WALRUS,GOVERNMENT,,,,,,WHISTLE,TREASURER,long,resources/sound/trials/audio_stim_comp12.mp3,60fd4227a0da73a530f9c5a7,21,Female,Right handed,2021-07-26_20h45.38.792,MA Experiment 2,2021.1.2,MacIntel,55.55555556,0,15,15,20,1,,,,,
1.138,response_1,longValid,FOREARM,AMMONIA,,,,,,MARBLE,CUSTOMER,short,resources/sound/trials/audio_stim_comp65.mp3,60fd4227a0da73a530f9c5a7,21,Female,Right handed,2021-07-26_20h45.38.792,MA Experiment 2,2021.1.2,MacIntel,55.55555556,0,16,16,4,1,,,,,
0.939,response_2,longValid,INVOICE,CARNATION,,,,,,SACRED,GALAXY,short,resources/sound/trials/audio_stim_comp1.mp3,60fd4227a0da73a530f9c5a7,21,Female,Right handed,2021-07-26_20h45.38.792,MA Experiment 2,2021.1.2,MacIntel,55.55555556,0,17,17,7,1,,,,,
0.963,response_1,shortValid,OLIVE,BUTTERFLY,,,,,,WORKER,VISITOR,short,resources/sound/trials/audio_stim_comp17.mp3,60fd4227a0da73a530f9c5a7,21,Female,Right handed,2021-07-26_20h45.38.792,MA Experiment 2,2021.1.2,MacIntel,55.55555556,0,18,18,6,1,,,,,
1.339,response_2,,MOONLIGHT,CIGARETTE,,,,,,IRIS,VIOLIN,short,resources/sound/catchTrials/audio_control_comp_project12.mp3,60fd4227a0da73a530f9c5a7,21,Female,Right handed,2021-07-26_20h45.38.792,MA Experiment 2,2021.1.2,MacIntel,55.55555556,,,,,,0,9,9,4,1
1.516,response_2,shortValid,HURDLE,PROJECTOR,,,,,,ROBBER,RATTLESNAKE,short,resources/sound/trials/audio_stim_human64.mp3,60fd4227a0da73a530f9c5a7,21,Female,Right handed,2021-07-26_20h45.38.792,MA Experiment 2,2021.1.2,MacIntel,55.55555556,0,19,19,15,1,,,,,
0.839,response_2,longFoil,TRAITOR,MERCURY,,,,,,MINER,EMERALD,short,resources/sound/trials/audio_stim_comp6.mp3,60fd4227a0da73a530f9c5a7,21,Female,Right handed,2021-07-26_20h45.38.792,MA Experiment 2,2021.1.2,MacIntel,55.55555556,0,20,20,1,1,,,,,
1.213,response_1,shortValid,CAPTAIN,ATHLETICS,,,,,,BRAINSTORM,GREEN NEEDLE,short,resources/sound/trials/audio_stim_original.mp3,60fd4227a0da73a530f9c5a7,21,Female,Right handed,2021-07-26_20h45.38.792,MA Experiment 2,2021.1.2,MacIntel,55.55555556,0,21,21,16,1,,,,,
1.314,response_2,shortValid,NEIGHBOUR,LECTURER,,,,,,PARTY,SANCTUARY,long,resources/sound/trials/audio_stim_human50.mp3,60fd4227a0da73a530f9c5a7,21,Female,Right handed,2021-07-26_20h45.38.792,MA Experiment 2,2021.1.2,MacIntel,55.55555556,0,22,22,31,1,,,,,
1.362,response_2,,BUTTER,FIREWOOD,,,,,,JOURNAL,ROBBERY,short,resources/sound/catchTrials/audio_control_human_project02.mp3,60fd4227a0da73a530f9c5a7,21,Female,Right handed,2021-07-26_20h45.38.792,MA Experiment 2,2021.1.2,MacIntel,55.55555556,,,,,,0,29,29,13,1
1.149,response_2,shortFoil,FAIRY,ATTENDANT,,,,,,RUBBER,PROPERTY,long,resources/sound/trials/audio_stim_human0.mp3,60fd4227a0da73a530f9c5a7,21,Female,Right handed,2021-07-26_20h45.38.792,MA Experiment 2,2021.1.2,MacIntel,55.55555556,0,23,23,29,1,,,,,
1.11,response_2,longValid,SODA,MINERAL,,,,,,MINER,EMERALD,long,resources/sound/trials/audio_stim_comp6.mp3,60fd4227a0da73a530f9c5a7,21,Female,Right handed,2021-07-26_20h45.38.792,MA Experiment 2,2021.1.2,MacIntel,55.55555556,0,24,24,18,1,,,,,
1.04,response_2,shortValid,KERNEL,GORILLA,,,,,,HARDWARE,OVERCOAT,short,resources/sound/trials/audio_stim_human35.mp3,60fd4227a0da73a530f9c5a7,21,Female,Right handed,2021-07-26_20h45.38.792,MA Experiment 2,2021.1.2,MacIntel,55.55555556,0,25,25,8,1,,,,,
1.217,response_2,shortValid,POLO,PHYSICIAN,,,,,,CONCRETE,ENEMY,long,resources/sound/trials/audio_stim_human67.mp3,60fd4227a0da73a530f9c5a7,21,Female,Right handed,2021-07-26_20h45.38.792,MA Experiment 2,2021.1.2,MacIntel,55.55555556,0,26,26,27,1,,,,,
1.275,response_2,,HARBOUR,HEADQUARTERS,,,,,,NAVY,RECTANGLE,short,resources/sound/catchTrials/audio_control_human_project06.mp3,60fd4227a0da73a530f9c5a7,21,Female,Right handed,2021-07-26_20h45.38.792,MA Experiment 2,2021.1.2,MacIntel,55.55555556,,,,,,0,3,3,14,1
1.284,response_1,shortFoil,SOFA,DESTROYER,,,,,,DRIZZLE,CARDINAL,short,resources/sound/trials/audio_stim_comp69.mp3,60fd4227a0da73a530f9c5a7,21,Female,Right handed,2021-07-26_20h45.38.792,MA Experiment 2,2021.1.2,MacIntel,55.55555556,0,27,27,0,1,,,,,
1.192,response_1,longValid,DIVING,AMBULANCE,,,,,,ATHLETE,IVORY,short,resources/sound/trials/audio_stim_comp57.mp3,60fd4227a0da73a530f9c5a7,21,Female,Right handed,2021-07-26_20h45.38.792,MA Experiment 2,2021.1.2,MacIntel,55.55555556,0,28,28,5,1,,,,,
1.143,response_2,longValid,DUEL,APPLIANCE,,,,,,BRAINSTORM,GREEN NEEDLE,long,resources/sound/trials/audio_stim_original.mp3,60fd4227a0da73a530f9c5a7,21,Female,Right handed,2021-07-26_20h45.38.792,MA Experiment 2,2021.1.2,MacIntel,55.55555556,0,29,29,33,1,,,,,
1.214,response_2,longFoil,JURY,GYMNASTICS,,,,,,ROBBER,RATTLESNAKE,long,resources/sound/trials/audio_stim_human64.mp3,60fd4227a0da73a530f9c5a7,21,Female,Right handed,2021-07-26_20h45.38.792,MA Experiment 2,2021.1.2,MacIntel,55.55555556,0,30,30,32,1,,,,,
1.022,response_1,,DIAL,CONVENTION,,,,,,VIOLET,LUBRICANT,long,resources/sound/catchTrials/audio_control_human_project07.mp3,60fd4227a0da73a530f9c5a7,21,Female,Right handed,2021-07-26_20h45.38.792,MA Experiment 2,2021.1.2,MacIntel,55.55555556,,,,,,0,11,11,28,1
2.48,response_1,longFoil,PIANO,PROFESSOR,,,,,,PAINTER,VEHICLE,long,resources/sound/trials/audio_stim_human47.mp3,60fd4227a0da73a530f9c5a7,21,Female,Right handed,2021-07-26_20h45.38.792,MA Experiment 2,2021.1.2,MacIntel,55.55555556,0,31,31,28,1,,,,,
1.198,response_2,shortFoil,MEDICINE,TANGERINE,,,,,,RUBBER,PROPERTY,short,resources/sound/trials/audio_stim_human0.mp3,60fd4227a0da73a530f9c5a7,21,Female,Right handed,2021-07-26_20h45.38.792,MA Experiment 2,2021.1.2,MacIntel,55.55555556,0,32,32,12,1,,,,,
1.145,response_1,shortValid,NAPKIN,INTERVIEW,,,,,,RECEIPT,LIMOUSINE,short,resources/sound/trials/audio_stim_comp40.mp3,60fd4227a0da73a530f9c5a7,21,Female,Right handed,2021-07-26_20h45.38.792,MA Experiment 2,2021.1.2,MacIntel,55.55555556,0,33,33,2,1,,,,,
1.414,response_2,shortFoil,KETTLE,CITIZEN,,,,,,DAYLIGHT,MATERIAL,long,resources/sound/trials/audio_stim_human42.mp3,60fd4227a0da73a530f9c5a7,21,Female,Right handed,2021-07-26_20h45.38.792,MA Experiment 2,2021.1.2,MacIntel,55.55555556,1,0,34,26,1,,,,,
1.341,response_1,shortFoil,MORNING,DISSECTION,,,,,,DAYLIGHT,MATERIAL,short,resources/sound/trials/audio_stim_human42.mp3,60fd4227a0da73a530f9c5a7,21,Female,Right handed,2021-07-26_20h45.38.792,MA Experiment 2,2021.1.2,MacIntel,55.55555556,1,1,35,9,1,,,,,
1.212,response_2,shortFoil,SADDLE,CATHEDRAL,,,,,,RECEIPT,LIMOUSINE,short,resources/sound/trials/audio_stim_comp40.mp3,60fd4227a0da73a530f9c5a7,21,Female,Right handed,2021-07-26_20h45.38.792,MA Experiment 2,2021.1.2,MacIntel,55.55555556,1,2,36,2,1,,,,,
1.19,response_2,,GRADUATE,OPENING,,,,,,NAVY,RECTANGLE,long,resources/sound/catchTrials/audio_control_human_project06.mp3,60fd4227a0da73a530f9c5a7,21,Female,Right handed,2021-07-26_20h45.38.792,MA Experiment 2,2021.1.2,MacIntel,55.55555556,,,,,,0,28,28,30,1
1.315,response_2,longValid,NURSERY,INSTRUMENT,,,,,,SACRED,GALAXY,long,resources/sound/trials/audio_stim_comp1.mp3,60fd4227a0da73a530f9c5a7,21,Female,Right handed,2021-07-26_20h45.38.792,MA Experiment 2,2021.1.2,MacIntel,55.55555556,1,3,37,24,1,,,,,
1.191,response_1,longValid,RUSTY,HANDKERCHIEF,,,,,,CONCRETE,ENEMY,long,resources/sound/trials/audio_stim_human67.mp3,60fd4227a0da73a530f9c5a7,21,Female,Right handed,2021-07-26_20h45.38.792,MA Experiment 2,2021.1.2,MacIntel,55.55555556,1,4,38,27,1,,,,,
1.611,response_2,longFoil,SEGMENT,POLIO,,,,,,MARBLE,CUSTOMER,short,resources/sound/trials/audio_stim_comp65.mp3,60fd4227a0da73a530f9c5a7,21,Female,Right handed,2021-07-26_20h45.38.792,MA Experiment 2,2021.1.2,MacIntel,55.55555556,1,5,39,4,1,,,,,
0.99,response_2,shortFoil,NOVEL,CORRIDOR,,,,,,PARTY,SANCTUARY,short,resources/sound/trials/audio_stim_human50.mp3,60fd4227a0da73a530f9c5a7,21,Female,Right handed,2021-07-26_20h45.38.792,MA Experiment 2,2021.1.2,MacIntel,55.55555556,1,6,40,14,1,,,,,
1.243,response_1,,BEETLE,GALLERY,,,,,,VIOLET,LUBRICANT,short,resources/sound/catchTrials/audio_control_human_project07.mp3,60fd4227a0da73a530f9c5a7,21,Female,Right handed,2021-07-26_20h45.38.792,MA Experiment 2,2021.1.2,MacIntel,55.55555556,,,,,,0,31,31,12,1
1.33,response_2,longValid,INCOME,HOSPITAL,,,,,,MINER,EMERALD,long,resources/sound/trials/audio_stim_human6.mp3,60fd4227a0da73a530f9c5a7,21,Female,Right handed,2021-07-26_20h45.38.792,MA Experiment 2,2021.1.2,MacIntel,55.55555556,1,7,41,30,1,,,,,
1.019,response_2,longFoil,CRYSTAL,ICICLE,,,,,,HARDWARE,OVERCOAT,long,resources/sound/trials/audio_stim_human35.mp3,60fd4227a0da73a530f9c5a7,21,Female,Right handed,2021-07-26_20h45.38.792,MA Experiment 2,2021.1.2,MacIntel,55.55555556,1,8,42,25,1,,,,,
1.417,response_2,longValid,WINDOW,ANTIQUE,,,,,,RECEIPT,LIMOUSINE,long,resources/sound/trials/audio_stim_comp40.mp3,60fd4227a0da73a530f9c5a7,21,Female,Right handed,2021-07-26_20h45.38.792,MA Experiment 2,2021.1.2,MacIntel,55.55555556,1,9,43,19,1,,,,,
0.975,response_2,shortValid,BERRY,GINGERBREAD,,,,,,ROBBER,RATTLESNAKE,long,resources/sound/trials/audio_stim_human64.mp3,60fd4227a0da73a530f9c5a7,21,Female,Right handed,2021-07-26_20h45.38.792,MA Experiment 2,2021.1.2,MacIntel,55.55555556,1,10,44,32,1,,,,,
1.094,response_2,,CANTEEN,LEMONADE,,,,,,ICY,JITTERBUG,long,resources/sound/catchTrials/audio_control_comp_project08.mp3,60fd4227a0da73a530f9c5a7,21,Female,Right handed,2021-07-26_20h45.38.792,MA Experiment 2,2021.1.2,MacIntel,55.55555556,,,,,,0,26,26,23,1
0.949,response_1,longValid,SINGER,CABINET,,,,,,ATHLETE,IVORY,long,resources/sound/trials/audio_stim_comp57.mp3,60fd4227a0da73a530f9c5a7,21,Female,Right handed,2021-07-26_20h45.38.792,MA Experiment 2,2021.1.2,MacIntel,55.55555556,1,11,45,22,1,,,,,
1.161,response_2,shortFoil,STATION,UMBRELLA,,,,,,BRAINSTORM,GREEN NEEDLE,long,resources/sound/trials/audio_stim_original.mp3,60fd4227a0da73a530f9c5a7,21,Female,Right handed,2021-07-26_20h45.38.792,MA Experiment 2,2021.1.2,MacIntel,55.55555556,1,12,46,33,1,,,,,
1.198,response_1,shortFoil,HAMSTER,ENAMEL,,,,,,DRIZZLE,CARDINAL,long,resources/sound/trials/audio_stim_comp69.mp3,60fd4227a0da73a530f9c5a7,21,Female,Right handed,2021-07-26_20h45.38.792,MA Experiment 2,2021.1.2,MacIntel,55.55555556,1,13,47,17,1,,,,,
0.791,response_2,longValid,LIQUID,CROCODILE,,,,,,PARTY,SANCTUARY,long,resources/sound/trials/audio_stim_human50.mp3,60fd4227a0da73a530f9c5a7,21,Female,Right handed,2021-07-26_20h45.38.792,MA Experiment 2,2021.1.2,MacIntel,55.55555556,1,14,48,31,1,,,,,
1.334,response_1,,CHIPMUNK,JANITOR,,,,,,POISON,REVOLVER,long,resources/sound/catchTrials/audio_control_human_project01.mp3,60fd4227a0da73a530f9c5a7,21,Female,Right handed,2021-07-26_20h45.38.792,MA Experiment 2,2021.1.2,MacIntel,55.55555556,,,,,,0,20,20,25,1
0.929,response_2,shortValid,TORTURE,VINEGAR,,,,,,RUBBER,PROPERTY,long,resources/sound/trials/audio_stim_human0.mp3,60fd4227a0da73a530f9c5a7,21,Female,Right handed,2021-07-26_20h45.38.792,MA Experiment 2,2021.1.2,MacIntel,55.55555556,1,15,49,29,1,,,,,
1.257,response_2,shortFoil,EARTHWORM,RETAILER,,,,,,WORKER,VISITOR,long,resources/sound/trials/audio_stim_comp17.mp3,60fd4227a0da73a530f9c5a7,21,Female,Right handed,2021-07-26_20h45.38.792,MA Experiment 2,2021.1.2,MacIntel,55.55555556,1,16,50,23,1,,,,,
2.119,response_2,shortFoil,SCOOTER,FISHERMAN,,,,,,PAINTER,VEHICLE,long,resources/sound/trials/audio_stim_human47.mp3,60fd4227a0da73a530f9c5a7,21,Female,Right handed,2021-07-26_20h45.38.792,MA Experiment 2,2021.1.2,MacIntel,55.55555556,1,17,51,28,1,,,,,
1.295,response_2,shortFoil,EVENING,ALPHABET,,,,,,MINER,EMERALD,short,resources/sound/trials/audio_stim_comp6.mp3,60fd4227a0da73a530f9c5a7,21,Female,Right handed,2021-07-26_20h45.38.792,MA Experiment 2,2021.1.2,MacIntel,55.55555556,1,18,52,1,1,,,,,
1.057,response_2,,BISHOP,SETTLEMENT,,,,,,HOBBY,COLONY,long,resources/sound/catchTrials/audio_control_comp_project04.mp3,60fd4227a0da73a530f9c5a7,21,Female,Right handed,2021-07-26_20h45.38.792,MA Experiment 2,2021.1.2,MacIntel,55.55555556,,,,,,0,15,15,18,1
1.593,response_1,shortValid,OFFICE,MICROSCOPE,,,,,,WHISTLE,TREASURER,long,resources/sound/trials/audio_stim_comp12.mp3,60fd4227a0da73a530f9c5a7,21,Female,Right handed,2021-07-26_20h45.38.792,MA Experiment 2,2021.1.2,MacIntel,55.55555556,1,19,53,20,1,,,,,
1.349,response_2,longFoil,CIGAR,HURRICANE,,,,,,HARDWARE,OVERCOAT,short,resources/sound/trials/audio_stim_human35.mp3,60fd4227a0da73a530f9c5a7,21,Female,Right handed,2021-07-26_20h45.38.792,MA Experiment 2,2021.1.2,MacIntel,55.55555556,1,20,54,8,1,,,,,
1.186,response_1,longValid,UNCLE,CAPITAL,,,,,,DRIZZLE,CARDINAL,short,resources/sound/trials/audio_stim_comp69.mp3,60fd4227a0da73a530f9c5a7,21,Female,Right handed,2021-07-26_20h45.38.792,MA Experiment 2,2021.1.2,MacIntel,55.55555556,1,21,55,0,1,,,,,
1.599,response_1,longFoil,HAMMER,SPECIALIST,,,,,,MARBLE,CUSTOMER,long,resources/sound/trials/audio_stim_comp65.mp3,60fd4227a0da73a530f9c5a7,21,Female,Right handed,2021-07-26_20h45.38.792,MA Experiment 2,2021.1.2,MacIntel,55.55555556,1,22,56,21,1,,,,,
1.327,response_1,,SHOULDER,REFEREE,,,,,,JUGGLER,DANDELION,long,resources/sound/catchTrials/audio_control_human_project09.mp3,60fd4227a0da73a530f9c5a7,21,Female,Right handed,2021-07-26_20h45.38.792,MA Experiment 2,2021.1.2,MacIntel,55.55555556,,,,,,0,19,19,31,1
1.581,response_2,shortFoil,SHEEPSKIN,AVENUE,,,,,,MINER,EMERALD,short,resources/sound/trials/audio_stim_human6.mp3,60fd4227a0da73a530f9c5a7,21,Female,Right handed,2021-07-26_20h45.38.792,MA Experiment 2,2021.1.2,MacIntel,55.55555556,1,23,57,13,1,,,,,
1.116,response_2,longValid,CABIN,STRAWBERRY,,,,,,WORKER,VISITOR,short,resources/sound/trials/audio_stim_comp17.mp3,60fd4227a0da73a530f9c5a7,21,Female,Right handed,2021-07-26_20h45.38.792,MA Experiment 2,2021.1.2,MacIntel,55.55555556,1,24,58,6,1,,,,,
1.165,response_1,shortFoil,DOORWAY,INJURY,,,,,,ATHLETE,IVORY,short,resources/sound/trials/audio_stim_comp57.mp3,60fd4227a0da73a530f9c5a7,21,Female,Right handed,2021-07-26_20h45.38.792,MA Experiment 2,2021.1.2,MacIntel,55.55555556,1,25,59,5,1,,,,,
0.974,response_2,longValid,VALLEY,ALCOHOL,,,,,,RUBBER,PROPERTY,short,resources/sound/trials/audio_stim_human0.mp3,60fd4227a0da73a530f9c5a7,21,Female,Right handed,2021-07-26_20h45.38.792,MA Experiment 2,2021.1.2,MacIntel,55.55555556,1,26,60,12,1,,,,,
1.411,response_1,,PICTURE,CLARINET,,,,,,JUGGLER,DANDELION,short,resources/sound/catchTrials/audio_control_human_project09.mp3,60fd4227a0da73a530f9c5a7,21,Female,Right handed,2021-07-26_20h45.38.792,MA Experiment 2,2021.1.2,MacIntel,55.55555556,,,,,,0,23,23,15,1
1.242,response_1,longValid,PATIENT,EMULSION,,,,,,WHISTLE,TREASURER,short,resources/sound/trials/audio_stim_comp12.mp3,60fd4227a0da73a530f9c5a7,21,Female,Right handed,2021-07-26_20h45.38.792,MA Experiment 2,2021.1.2,MacIntel,55.55555556,1,27,61,3,1,,,,,
1.764,response_1,shortFoil,WAFER,INSTITUTE,,,,,,PAINTER,VEHICLE,short,resources/sound/trials/audio_stim_human47.mp3,60fd4227a0da73a530f9c5a7,21,Female,Right handed,2021-07-26_20h45.38.792,MA Experiment 2,2021.1.2,MacIntel,55.55555556,1,28,62,11,1,,,,,
1.028,response_2,longFoil,DANCER,INDUSTRY,,,,,,SACRED,GALAXY,short,resources/sound/trials/audio_stim_comp1.mp3,60fd4227a0da73a530f9c5a7,21,Female,Right handed,2021-07-26_20h45.38.792,MA Experiment 2,2021.1.2,MacIntel,55.55555556,1,29,63,7,1,,,,,
1.139,response_2,longValid,LEADER,MONUMENT,,,,,,ROBBER,RATTLESNAKE,short,resources/sound/trials/audio_stim_human64.mp3,60fd4227a0da73a530f9c5a7,21,Female,Right handed,2021-07-26_20h45.38.792,MA Experiment 2,2021.1.2,MacIntel,55.55555556,1,30,64,15,1,,,,,
0.981,response_2,,TWEEZER,ASBESTOS,,,,,,HOBBY,COLONY,short,resources/sound/catchTrials/audio_control_human_project04.mp3,60fd4227a0da73a530f9c5a7,21,Female,Right handed,2021-07-26_20h45.38.792,MA Experiment 2,2021.1.2,MacIntel,55.55555556,,,,,,0,4,4,11,1
1.176,response_1,shortFoil,FEVER,BEVERAGE,,,,,,CONCRETE,ENEMY,short,resources/sound/trials/audio_stim_human67.mp3,60fd4227a0da73a530f9c5a7,21,Female,Right handed,2021-07-26_20h45.38.792,MA Experiment 2,2021.1.2,MacIntel,55.55555556,1,31,65,10,1,,,,,
0.893,response_2,longValid,NATIVE,MOLECULE,,,,,,BRAINSTORM,GREEN NEEDLE,short,resources/sound/trials/audio_stim_original.mp3,60fd4227a0da73a530f9c5a7,21,Female,Right handed,2021-07-26_20h45.38.792,MA Experiment 2,2021.1.2,MacIntel,55.55555556,1,32,66,16,1,,,,,
1.167,response_2,shortValid,VILLAGE,CANDLELIGHT,,,,,,MINER,EMERALD,long,resources/sound/trials/audio_stim_comp6.mp3,60fd4227a0da73a530f9c5a7,21,Female,Right handed,2021-07-26_20h45.38.792,MA Experiment 2,2021.1.2,MacIntel,55.55555556,1,33,67,18,1,,,,,
0.974,response_2,longFoil,CURFEW,CAMERA,,,,,,RUBBER,PROPERTY,short,resources/sound/trials/audio_stim_human0.mp3,60fd4227a0da73a530f9c5a7,21,Female,Right handed,2021-07-26_20h45.38.792,MA Experiment 2,2021.1.2,MacIntel,55.55555556,2,0,68,12,1,,,,,
0.775,response_1,longValid,DECOY,RETAILER,,,,,,MARBLE,CUSTOMER,long,resources/sound/trials/audio_stim_comp65.mp3,60fd4227a0da73a530f9c5a7,21,Female,Right handed,2021-07-26_20h45.38.792,MA Experiment 2,2021.1.2,MacIntel,55.55555556,2,1,69,21,1,,,,,
1.327,response_2,longFoil,HAMMER,BEVERAGE,,,,,,RUBBER,PROPERTY,long,resources/sound/trials/audio_stim_human0.mp3,60fd4227a0da73a530f9c5a7,21,Female,Right handed,2021-07-26_20h45.38.792,MA Experiment 2,2021.1.2,MacIntel,55.55555556,2,2,70,29,1,,,,,
1.242,response_2,,EVENING,INSTITUTE,,,,,,HOBBY,COLONY,long,resources/sound/catchTrials/audio_control_human_project04.mp3,60fd4227a0da73a530f9c5a7,21,Female,Right handed,2021-07-26_20h45.38.792,MA Experiment 2,2021.1.2,MacIntel,55.55555556,,,,,,0,5,5,27,1
1.411,response_1,longFoil,WAFER,MERCURY,,,,,,WHISTLE,TREASURER,short,resources/sound/trials/audio_stim_comp12.mp3,60fd4227a0da73a530f9c5a7,21,Female,Right handed,2021-07-26_20h45.38.792,MA Experiment 2,2021.1.2,MacIntel,55.55555556,2,3,71,3,1,,,,,
1.233,response_1,shortValid,RUSTY,PROFESSOR,,,,,,CONCRETE,ENEMY,short,resources/sound/trials/audio_stim_human67.mp3,60fd4227a0da73a530f9c5a7,21,Female,Right handed,2021-07-26_20h45.38.792,MA Experiment 2,2021.1.2,MacIntel,55.55555556,2,4,72,10,1,,,,,
0.958,response_1,longFoil,NOVEL,CANDLELIGHT,,,,,,DRIZZLE,CARDINAL,long,resources/sound/trials/audio_stim_comp69.mp3,60fd4227a0da73a530f9c5a7,21,Female,Right handed,2021-07-26_20h45.38.792,MA Experiment 2,2021.1.2,MacIntel,55.55555556,2,5,73,17,1,,,,,
1.046,response_1,shortValid,KETTLE,GORILLA,,,,,,PAINTER,VEHICLE,long,resources/sound/trials/audio_stim_human47.mp3,60fd4227a0da73a530f9c5a7,21,Female,Right handed,2021-07-26_20h45.38.792,MA Experiment 2,2021.1.2,MacIntel,55.55555556,2,6,74,28,1,,,,,
1.227,response_2,,OLIVE,REFEREE,,,,,,BORDER,ALGEBRA,short,resources/sound/catchTrials/audio_control_comp_project00.mp3,60fd4227a0da73a530f9c5a7,21,Female,Right handed,2021-07-26_20h45.38.792,MA Experiment 2,2021.1.2,MacIntel,55.55555556,,,,,,0,27,27,0,1
1.71,response_1,longFoil,VALLEY,TANGERINE,,,,,,WHISTLE,TREASURER,long,resources/sound/trials/audio_stim_comp12.mp3,60fd4227a0da73a530f9c5a7,21,Female,Right handed,2021-07-26_20h45.38.792,MA Experiment 2,2021.1.2,MacIntel,55.55555556,2,7,75,20,1,,,,,
1.126,response_2,longValid,BEETLE,INSTRUMENT,,,,,,PARTY,SANCTUARY,short,resources/sound/trials/audio_stim_human50.mp3,60fd4227a0da73a530f9c5a7,21,Female,Right handed,2021-07-26_20h45.38.792,MA Experiment 2,2021.1.2,MacIntel,55.55555556,2,8,76,14,1,,,,,
1.194,response_1,shortValid,TUMBLE,VINEGAR,,,,,,WORKER,VISITOR,long,resources/sound/trials/audio_stim_comp17.mp3,60fd4227a0da73a530f9c5a7,21,Female,Right handed,2021-07-26_20h45.38.792,MA Experiment 2,2021.1.2,MacIntel,55.55555556,2,9,77,23,1,,,,,
0.955,response_2,longValid,MURAL,BUTTERFLY,,,,,,HARDWARE,OVERCOAT,short,resources/sound/trials/audio_stim_human35.mp3,60fd4227a0da73a530f9c5a7,21,Female,Right handed,2021-07-26_20h45.38.792,MA Experiment 2,2021.1.2,MacIntel,55.55555556,2,10,78,8,1,,,,,
1.347,response_2,,SINGER,INTERVIEW,,,,,,CORNER,ENGINEER,short,resources/sound/catchTrials/audio_control_comp_project14.mp3,60fd4227a0da73a530f9c5a7,21,Female,Right handed,2021-07-26_20h45.38.792,MA Experiment 2,2021.1.2,MacIntel,55.55555556,,,,,,0,12,12,1,1
0.657,response_2,longFoil,INVOICE,TEMPERATURE,,,,,,BRAINSTORM,GREEN NEEDLE,short,resources/sound/trials/audio_stim_original.mp3,60fd4227a0da73a530f9c5a7,21,Female,Right handed,2021-07-26_20h45.38.792,MA Experiment 2,2021.1.2,MacIntel,55.55555556,2,11,79,16,1,,,,,
1.311,response_1,shortValid,ANCHOR,FAMILY,,,,,,SACRED,GALAXY,long,resources/sound/trials/audio_stim_comp1.mp3,60fd4227a0da73a530f9c5a7,21,Female,Right handed,2021-07-26_20h45.38.792,MA Experiment 2,2021.1.2,MacIntel,55.55555556,2,12,80,24,1,,,,,
1.117,response_2,longValid,DANCER,MONUMENT,,,,,,RECEIPT,LIMOUSINE,short,resources/sound/trials/audio_stim_comp40.mp3,60fd4227a0da73a530f9c5a7,21,Female,Right handed,2021-07-26_20h45.38.792,MA Experiment 2,2021.1.2,MacIntel,55.55555556,2,13,81,2,1,,,,,
0.89,response_1,shortValid,OFFICE,FIREWOOD,,,,,,RECEIPT,LIMOUSINE,long,resources/sound/trials/audio_stim_comp40.mp3,60fd4227a0da73a530f9c5a7,21,Female,Right handed,2021-07-26_20h45.38.792,MA Experiment 2,2021.1.2,MacIntel,55.55555556,2,14,82,19,1,,,,,
1.142,response_2,,FERTILE,HOSPITAL,,,,,,IRIS,VIOLIN,long,resources/sound/catchTrials/audio_control_human_project12.mp3,60fd4227a0da73a530f9c5a7,21,Female,Right handed,2021-07-26_20h45.38.792,MA Experiment 2,2021.1.2,MacIntel,55.55555556,,,,,,0,24,24,24,1
1.074,response_1,shortValid,CURFEW,AMBULANCE,,,,,,MARBLE,CUSTOMER,short,resources/sound/trials/audio_stim_comp65.mp3,60fd4227a0da73a530f9c5a7,21,Female,Right handed,2021-07-26_20h45.38.792,MA Experiment 2,2021.1.2,MacIntel,55.55555556,2,15,83,4,1,,,,,
1.363,response_2,shortFoil,CABIN,CIGARETTE,,,,,,ROBBER,RATTLESNAKE,long,resources/sound/trials/audio_stim_human64.mp3,60fd4227a0da73a530f9c5a7,21,Female,Right handed,2021-07-26_20h45.38.792,MA Experiment 2,2021.1.2,MacIntel,55.55555556,2,16,84,32,1,,,,,
0.66,response_2,shortValid,NECKLACE,HURRICANE,,,,,,MINER,EMERALD,long,resources/sound/trials/audio_stim_human6.mp3,60fd4227a0da73a530f9c5a7,21,Female,Right handed,2021-07-26_20h45.38.792,MA Experiment 2,2021.1.2,MacIntel,55.55555556,2,17,85,30,1,,,,,
1.296,response_2,longFoil,BURNER,SAXOPHONE,,,,,,ROBBER,RATTLESNAKE,short,resources/sound/trials/audio_stim_human64.mp3,60fd4227a0da73a530f9c5a7,21,Female,Right handed,2021-07-26_20h45.38.792,MA Experiment 2,2021.1.2,MacIntel,55.55555556,2,18,86,15,1,,,,,
1.133,response_2,,BISHOP,COMMITTEE,,,,,,CORNER,ENGINEER,long,resources/sound/catchTrials/audio_control_human_project14.mp3,60fd4227a0da73a530f9c5a7,21,Female,Right handed,2021-07-26_20h45.38.792,MA Experiment 2,2021.1.2,MacIntel,55.55555556,,,,,,0,2,2,26,1
1.33,response_2,longFoil,VILLAGE,MINISTER,,,,,,BRAINSTORM,GREEN NEEDLE,long,resources/sound/trials/audio_stim_original.mp3,60fd4227a0da73a530f9c5a7,21,Female,Right handed,2021-07-26_20h45.38.792,MA Experiment 2,2021.1.2,MacIntel,55.55555556,2,19,87,33,1,,,,,
1.126,response_2,longFoil,VESSEL,ORNAMENT,,,,,,MINER,EMERALD,long,resources/sound/trials/audio_stim_comp6.mp3,60fd4227a0da73a530f9c5a7,21,Female,Right handed,2021-07-26_20h45.38.792,MA Experiment 2,2021.1.2,MacIntel,55.55555556,2,20,88,18,1,,,,,
1.273,response_2,longValid,STATION,STRAWBERRY,,,,,,MINER,EMERALD,short,resources/sound/trials/audio_stim_comp6.mp3,60fd4227a0da73a530f9c5a7,21,Female,Right handed,2021-07-26_20h45.38.792,MA Experiment 2,2021.1.2,MacIntel,55.55555556,2,21,89,1,1,,,,,
0.923,response_1,shortValid,PATIENT,FACTORY,,,,,,DAYLIGHT,MATERIAL,long,resources/sound/trials/audio_stim_human42.mp3,60fd4227a0da73a530f9c5a7,21,Female,Right handed,2021-07-26_20h45.38.792,MA Experiment 2,2021.1.2,MacIntel,55.55555556,2,22,90,26,1,,,,,
0.513,response_2,,SOFA,MICROSCOPE,,,,,,SPINACH,APRICOT,long,resources/sound/catchTrials/audio_control_comp_project18.mp3,60fd4227a0da73a530f9c5a7,21,Female,Right handed,2021-07-26_20h45.38.792,MA Experiment 2,2021.1.2,MacIntel,55.55555556,,,,,,0,18,18,21,1
1.082,response_1,longValid,CANTEEN,DESTROYER,,,,,,DAYLIGHT,MATERIAL,short,resources/sound/trials/audio_stim_human42.mp3,60fd4227a0da73a530f9c5a7,21,Female,Right handed,2021-07-26_20h45.38.792,MA Experiment 2,2021.1.2,MacIntel,55.55555556,2,23,91,9,1,,,,,
0.99,response_1,shortFoil,NATIVE,ALPHABET,,,,,,WORKER,VISITOR,short,resources/sound/trials/audio_stim_comp17.mp3,60fd4227a0da73a530f9c5a7,21,Female,Right handed,2021-07-26_20h45.38.792,MA Experiment 2,2021.1.2,MacIntel,55.55555556,2,24,92,6,1,,,,,
1.021,response_1,shortFoil,MISTRESS,HEROIN,,,,,,CONCRETE,ENEMY,long,resources/sound/trials/audio_stim_human67.mp3,60fd4227a0da73a530f9c5a7,21,Female,Right handed,2021-07-26_20h45.38.792,MA Experiment 2,2021.1.2,MacIntel,55.55555556,2,25,93,27,1,,,,,
1.223,response_1,longFoil,TORTURE,CORRIDOR,,,,,,PARTY,SANCTUARY,long,resources/sound/trials/audio_stim_human50.mp3,60fd4227a0da73a530f9c5a7,21,Female,Right handed,2021-07-26_20h45.38.792,MA Experiment 2,2021.1.2,MacIntel,55.55555556,2,26,94,31,1,,,,,
1.03,response_2,,UNCLE,AMMONIA,,,,,,NAVY,RECTANGLE,short,resources/sound/catchTrials/audio_control_comp_project06.mp3,60fd4227a0da73a530f9c5a7,21,Female,Right handed,2021-07-26_20h45.38.792,MA Experiment 2,2021.1.2,MacIntel,55.55555556,,,,,,0,21,21,6,1
1.329,response_1,shortValid,FOREARM,LECTURER,,,,,,SACRED,GALAXY,short,resources/sound/trials/audio_stim_comp1.mp3,60fd4227a0da73a530f9c5a7,21,Female,Right handed,2021-07-26_20h45.38.792,MA Experiment 2,2021.1.2,MacIntel,55.55555556,2,27,95,7,1,,,,,
1.059,response_1,shortValid,PIPING,CARNATION,,,,,,DRIZZLE,CARDINAL,short,resources/sound/trials/audio_stim_comp69.mp3,60fd4227a0da73a530f9c5a7,21,Female,Right handed,2021-07-26_20h45.38.792,MA Experiment 2,2021.1.2,MacIntel,55.55555556,2,28,96,0,1,,,,,
0.697,response_2,longFoil,SCOOTER,NEIGHBOURHOOD,,,,,,MINER,EMERALD,short,resources/sound/trials/audio_stim_human6.mp3,60fd4227a0da73a530f9c5a7,21,Female,Right handed,2021-07-26_20h45.38.792,MA Experiment 2,2021.1.2,MacIntel,55.55555556,2,29,97,13,1,,,,,
1.256,response_1,longFoil,SODA,CROCODILE,,,,,,PAINTER,VEHICLE,short,resources/sound/trials/audio_stim_human47.mp3,60fd4227a0da73a530f9c5a7,21,Female,Right handed,2021-07-26_20h45.38.792,MA Experiment 2,2021.1.2,MacIntel,55.55555556,2,30,98,11,1,,,,,
1.168,response_2,,KENNEL,CAPITAL,,,,,,CORNER,ENGINEER,long,resources/sound/catchTrials/audio_control_comp_project14.mp3,60fd4227a0da73a530f9c5a7,21,Female,Right handed,2021-07-26_20h45.38.792,MA Experiment 2,2021.1.2,MacIntel,55.55555556,,,,,,0,6,6,17,1
1.416,response_1,longFoil,MURDER,DISSECTION,,,,,,ATHLETE,IVORY,short,resources/sound/trials/audio_stim_comp57.mp3,60fd4227a0da73a530f9c5a7,21,Female,Right handed,2021-07-26_20h45.38.792,MA Experiment 2,2021.1.2,MacIntel,55.55555556,2,31,99,5,1,,,,,
1.29,response_1,shortValid,KERNEL,PHYSICIAN,,,,,,ATHLETE,IVORY,long,resources/sound/trials/audio_stim_comp57.mp3,60fd4227a0da73a530f9c5a7,21,Female,Right handed,2021-07-26_20h45.38.792,MA Experiment 2,2021.1.2,MacIntel,55.55555556,2,32,100,22,1,,,,,
1.2,response_2,longValid,SHOULDER,CLARINET,,,,,,HARDWARE,OVERCOAT,long,resources/sound/trials/audio_stim_human35.mp3,60fd4227a0da73a530f9c5a7,21,Female,Right handed,2021-07-26_20h45.38.792,MA Experiment 2,2021.1.2,MacIntel,55.55555556,2,33,101,25,1,,,,,
0.838,response_2,shortFoil,HAMSTER,ANTIQUE,,,,,,PARTY,SANCTUARY,long,resources/sound/trials/audio_stim_human50.mp3,60fd4227a0da73a530f9c5a7,21,Female,Right handed,2021-07-26_20h45.38.792,MA Experiment 2,2021.1.2,MacIntel,55.55555556,3,0,102,31,1,,,,,
1.056,response_2,shortFoil,LIQUID,CONVENTION,,,,,,ROBBER,RATTLESNAKE,short,resources/sound/trials/audio_stim_human64.mp3,60fd4227a0da73a530f9c5a7,21,Female,Right handed,2021-07-26_20h45.38.792,MA Experiment 2,2021.1.2,MacIntel,55.55555556,3,1,103,15,1,,,,,
1.796,response_2,shortFoil,EARTHWORM,HEADQUARTERS,,,,,,MINER,EMERALD,long,resources/sound/trials/audio_stim_human6.mp3,60fd4227a0da73a530f9c5a7,21,Female,Right handed,2021-07-26_20h45.38.792,MA Experiment 2,2021.1.2,MacIntel,55.55555556,3,2,104,30,1,,,,,
1.27,response_2,,BERRY,FISHERMAN,,,,,,SPINACH,APRICOT,short,resources/sound/catchTrials/audio_control_comp_project18.mp3,60fd4227a0da73a530f9c5a7,21,Female,Right handed,2021-07-26_20h45.38.792,MA Experiment 2,2021.1.2,MacIntel,55.55555556,,,,,,0,30,30,5,1
1.415,response_1,shortValid,GIRDLE,PHOTOGRAPH,,,,,,BRAINSTORM,GREEN NEEDLE,long,resources/sound/trials/audio_stim_original.mp3,60fd4227a0da73a530f9c5a7,21,Female,Right handed,2021-07-26_20h45.38.792,MA Experiment 2,2021.1.2,MacIntel,55.55555556,3,3,105,33,1,,,,,
1.007,response_2,longFoil,LOBSTER,CATHEDRAL,,,,,,WORKER,VISITOR,long,resources/sound/trials/audio_stim_comp17.mp3,60fd4227a0da73a530f9c5a7,21,Female,Right handed,2021-07-26_20h45.38.792,MA Experiment 2,2021.1.2,MacIntel,55.55555556,3,4,106,23,1,,,,,
1.382,response_2,longValid,TEMPLE,POTATO,,,,,,DRIZZLE,CARDINAL,long,resources/sound/trials/audio_stim_comp69.mp3,60fd4227a0da73a530f9c5a7,21,Female,Right handed,2021-07-26_20h45.38.792,MA Experiment 2,2021.1.2,MacIntel,55.55555556,3,5,107,17,1,,,,,
1.109,response_1,longFoil,MEASLES,MOSQUITO,,,,,,WORKER,VISITOR,short,resources/sound/trials/audio_stim_comp17.mp3,60fd4227a0da73a530f9c5a7,21,Female,Right handed,2021-07-26_20h45.38.792,MA Experiment 2,2021.1.2,MacIntel,55.55555556,3,6,108,6,1,,,,,
1.237,response_2,,LIGHTNING,SETTLEMENT,,,,,,CORNER,ENGINEER,short,resources/sound/catchTrials/audio_control_human_project14.mp3,60fd4227a0da73a530f9c5a7,21,Female,Right handed,2021-07-26_20h45.38.792,MA Experiment 2,2021.1.2,MacIntel,55.55555556,,,,,,0,17,17,10,1
1.131,response_1,longValid,WRITING,POLICEMAN,,,,,,DAYLIGHT,MATERIAL,long,resources/sound/trials/audio_stim_human42.mp3,60fd4227a0da73a530f9c5a7,21,Female,Right handed,2021-07-26_20h45.38.792,MA Experiment 2,2021.1.2,MacIntel,55.55555556,3,7,109,26,1,,,,,
1.092,response_2,longValid,WALRUS,ENVELOPE,,,,,,PAINTER,VEHICLE,short,resources/sound/trials/audio_stim_human47.mp3,60fd4227a0da73a530f9c5a7,21,Female,Right handed,2021-07-26_20h45.38.792,MA Experiment 2,2021.1.2,MacIntel,55.55555556,3,8,110,11,1,,,,,
1.239,response_1,longFoil,SADDLE,ENAMEL,,,,,,CONCRETE,ENEMY,long,resources/sound/trials/audio_stim_human67.mp3,60fd4227a0da73a530f9c5a7,21,Female,Right handed,2021-07-26_20h45.38.792,MA Experiment 2,2021.1.2,MacIntel,55.55555556,3,9,111,27,1,,,,,
1.767,response_1,shortValid,RABBI,INJURY,,,,,,RUBBER,PROPERTY,short,resources/sound/trials/audio_stim_human0.mp3,60fd4227a0da73a530f9c5a7,21,Female,Right handed,2021-07-26_20h45.38.792,MA Experiment 2,2021.1.2,MacIntel,55.55555556,3,10,112,12,1,,,,,
1.306,response_2,,WIRE,CAMERA,,,,,,NAVY,RECTANGLE,long,resources/sound/catchTrials/audio_control_comp_project06.mp3,60fd4227a0da73a530f9c5a7,21,Female,Right handed,2021-07-26_20h45.38.792,MA Experiment 2,2021.1.2,MacIntel,55.55555556,,,,,,0,13,13,22,1
0.917,response_1,shortValid,CEREAL,ABDOMEN,,,,,,ATHLETE,IVORY,short,resources/sound/trials/audio_stim_comp57.mp3,60fd4227a0da73a530f9c5a7,21,Female,Right handed,2021-07-26_20h45.38.792,MA Experiment 2,2021.1.2,MacIntel,55.55555556,3,11,113,5,1,,,,,
1.405,response_1,longFoil,NURSERY,HANDKERCHIEF,,,,,,PARTY,SANCTUARY,short,resources/sound/trials/audio_stim_human50.mp3,60fd4227a0da73a530f9c5a7,21,Female,Right handed,2021-07-26_20h45.38.792,MA Experiment 2,2021.1.2,MacIntel,55.55555556,3,12,114,14,1,,,,,
1.24,response_1,longFoil,PIANO,LEMONADE,,,,,,DRIZZLE,CARDINAL,short,resources/sound/trials/audio_stim_comp69.mp3,60fd4227a0da73a530f9c5a7,21,Female,Right handed,2021-07-26_20h45.38.792,MA Experiment 2,2021.1.2,MacIntel,55.55555556,3,13,115,0,1,,,,,
0.976,response_2,shortFoil,BUTTER,CITIZEN,,,,,,MINER,EMERALD,long,resources/sound/trials/audio_stim_comp6.mp3,60fd4227a0da73a530f9c5a7,21,Female,Right handed,2021-07-26_20h45.38.792,MA Experiment 2,2021.1.2,MacIntel,55.55555556,3,14,116,18,1,,,,,
1.403,response_1,,HURDLE,CABINET,,,,,,POISON,REVOLVER,short,resources/sound/catchTrials/audio_control_human_project01.mp3,60fd4227a0da73a530f9c5a7,21,Female,Right handed,2021-07-26_20h45.38.792,MA Experiment 2,2021.1.2,MacIntel,55.55555556,,,,,,0,8,8,9,1
1.418,response_1,shortFoil,SULPHUR,GYMNASTICS,,,,,,BRAINSTORM,GREEN NEEDLE,short,resources/sound/trials/audio_stim_original.mp3,60fd4227a0da73a530f9c5a7,21,Female,Right handed,2021-07-26_20h45.38.792,MA Experiment 2,2021.1.2,MacIntel,55.55555556,3,15,117,16,1,,,,,
1.284,response_1,longFoil,TRAITOR,INFECTION,,,,,,RECEIPT,LIMOUSINE,short,resources/sound/trials/audio_stim_comp40.mp3,60fd4227a0da73a530f9c5a7,21,Female,Right handed,2021-07-26_20h45.38.792,MA Experiment 2,2021.1.2,MacIntel,55.55555556,3,16,118,2,1,,,,,
1.223,response_1,shortFoil,VAPOUR,CHOCOLATE,,,,,,SACRED,GALAXY,long,resources/sound/trials/audio_stim_comp1.mp3,60fd4227a0da73a530f9c5a7,21,Female,Right handed,2021-07-26_20h45.38.792,MA Experiment 2,2021.1.2,MacIntel,55.55555556,3,17,119,24,1,,,,,
0.941,response_2,longValid,PERSON,OPENING,,,,,,PAINTER,VEHICLE,long,resources/sound/trials/audio_stim_human47.mp3,60fd4227a0da73a530f9c5a7,21,Female,Right handed,2021-07-26_20h45.38.792,MA Experiment 2,2021.1.2,MacIntel,55.55555556,3,18,120,28,1,,,,,
1.371,response_1,,PODIUM,FURNITURE,,,,,,VIOLET,LUBRICANT,short,resources/sound/catchTrials/audio_control_comp_project07.mp3,60fd4227a0da73a530f9c5a7,21,Female,Right handed,2021-07-26_20h45.38.792,MA Experiment 2,2021.1.2,MacIntel,55.55555556,,,,,,0,7,7,3,1
1.48,response_1,shortFoil,CRYSTAL,MOLECULE,,,,,,SACRED,GALAXY,short,resources/sound/trials/audio_stim_comp1.mp3,60fd4227a0da73a530f9c5a7,21,Female,Right handed,2021-07-26_20h45.38.792,MA Experiment 2,2021.1.2,MacIntel,55.55555556,3,19,121,7,1,,,,,
1.408,response_2,longValid,DWELLER,APPLIANCE,,,,,,RUBBER,PROPERTY,long,resources/sound/trials/audio_stim_human0.mp3,60fd4227a0da73a530f9c5a7,21,Female,Right handed,2021-07-26_20h45.38.792,MA Experiment 2,2021.1.2,MacIntel,55.55555556,3,20,122,29,1,,,,,
1.245,response_1,shortValid,POLO,GOVERNMENT,,,,,,DAYLIGHT,MATERIAL,short,resources/sound/trials/audio_stim_human42.mp3,60fd4227a0da73a530f9c5a7,21,Female,Right handed,2021-07-26_20h45.38.792,MA Experiment 2,2021.1.2,MacIntel,55.55555556,3,21,123,9,1,,,,,
1.326,response_2,longValid,WINDOW,PROJECTOR,,,,,,WHISTLE,TREASURER,long,resources/sound/trials/audio_stim_comp12.mp3,60fd4227a0da73a530f9c5a7,21,Female,Right handed,2021-07-26_20h45.38.792,MA Experiment 2,2021.1.2,MacIntel,55.55555556,3,22,124,20,1,,,,,
1.458,response_2,,DIAL,MECHANIC,,,,,,JOURNAL,ROBBERY,long,resources/sound/catchTrials/audio_control_human_project02.mp3,60fd4227a0da73a530f9c5a7,21,Female,Right handed,2021-07-26_20h45.38.792,MA Experiment 2,2021.1.2,MacIntel,55.55555556,,,,,,0,0,0,29,1
1.218,response_2,shortFoil,LEADER,UMBRELLA,,,,,,MARBLE,CUSTOMER,long,resources/sound/trials/audio_stim_comp65.mp3,60fd4227a0da73a530f9c5a7,21,Female,Right handed,2021-07-26_20h45.38.792,MA Experiment 2,2021.1.2,MacIntel,55.55555556,3,23,125,21,1,,,,,
1.558,response_2,longValid,DIVING,MESSENGER,,,,,,ROBBER,RATTLESNAKE,long,resources/sound/trials/audio_stim_human64.mp3,60fd4227a0da73a530f9c5a7,21,Female,Right handed,2021-07-26_20h45.38.792,MA Experiment 2,2021.1.2,MacIntel,55.55555556,3,24,126,32,1,,,,,
0.94,response_2,shortValid,STOCKING,CINNAMON,,,,,,MINER,EMERALD,short,resources/sound/trials/audio_stim_comp6.mp3,60fd4227a0da73a530f9c5a7,21,Female,Right handed,2021-07-26_20h45.38.792,MA Experiment 2,2021.1.2,MacIntel,55.55555556,3,25,127,1,1,,,,,
1.583,response_2,shortValid,HARBOUR,ACROBAT,,,,,,MINER,EMERALD,short,resources/sound/trials/audio_stim_human6.mp3,60fd4227a0da73a530f9c5a7,21,Female,Right handed,2021-07-26_20h45.38.792,MA Experiment 2,2021.1.2,MacIntel,55.55555556,3,26,128,13,1,,,,,
1.335,response_2,,NAPKIN,GINGERBREAD,,,,,,IRIS,VIOLIN,long,resources/sound/catchTrials/audio_control_comp_project12.mp3,60fd4227a0da73a530f9c5a7,21,Female,Right handed,2021-07-26_20h45.38.792,MA Experiment 2,2021.1.2,MacIntel,55.55555556,,,,,,0,22,22,20,1
1.589,response_2,shortFoil,MUSCLE,NEWSPAPER,,,,,,HARDWARE,OVERCOAT,short,resources/sound/trials/audio_stim_human35.mp3,60fd4227a0da73a530f9c5a7,21,Female,Right handed,2021-07-26_20h45.38.792,MA Experiment 2,2021.1.2,MacIntel,55.55555556,3,27,129,8,1,,,,,
1.152,response_1,shortFoil,ACRE,INSTRUCTOR,,,,,,ATHLETE,IVORY,long,resources/sound/trials/audio_stim_comp57.mp3,60fd4227a0da73a530f9c5a7,21,Female,Right handed,2021-07-26_20h45.38.792,MA Experiment 2,2021.1.2,MacIntel,55.55555556,3,28,130,22,1,,,,,
1.147,response_1,longFoil,SEGMENT,OXYGEN,,,,,,CONCRETE,ENEMY,short,resources/sound/trials/audio_stim_human67.mp3,60fd4227a0da73a530f9c5a7,21,Female,Right handed,2021-07-26_20h45.38.792,MA Experiment 2,2021.1.2,MacIntel,55.55555556,3,29,131,10,1,,,,,
1.111,response_2,shortFoil,MORNING,INDUSTRY,,,,,,MARBLE,CUSTOMER,short,resources/sound/trials/audio_stim_comp65.mp3,60fd4227a0da73a530f9c5a7,21,Female,Right handed,2021-07-26_20h45.38.792,MA Experiment 2,2021.1.2,MacIntel,55.55555556,3,30,132,4,1,,,,,
1.539,response_2,,FATHER,ICICLE,,,,,,BORDER,ALGEBRA,long,resources/sound/catchTrials/audio_control_comp_project00.mp3,60fd4227a0da73a530f9c5a7,21,Female,Right handed,2021-07-26_20h45.38.792,MA Experiment 2,2021.1.2,MacIntel,55.55555556,,,,,,0,25,25,16,1
1.414,response_1,longFoil,FEVER,ALCOHOL,,,,,,RECEIPT,LIMOUSINE,long,resources/sound/trials/audio_stim_comp40.mp3,60fd4227a0da73a530f9c5a7,21,Female,Right handed,2021-07-26_20h45.38.792,MA Experiment 2,2021.1.2,MacIntel,55.55555556,3,31,133,19,1,,,,,
1.282,response_1,shortValid,MOONLIGHT,GALLERY,,,,,,WHISTLE,TREASURER,short,resources/sound/trials/audio_stim_comp12.mp3,60fd4227a0da73a530f9c5a7,21,Female,Right handed,2021-07-26_20h45.38.792,MA Experiment 2,2021.1.2,MacIntel,55.55555556,3,32,134,3,1,,,,,
0.802,response_1,shortValid,GRADUATE,AVENUE,,,,,,HARDWARE,OVERCOAT,long,resources/sound/trials/audio_stim_human35.mp3,60fd4227a0da73a530f9c5a7,21,Female,Right handed,2021-07-26_20h45.38.792,MA Experiment 2,2021.1.2,MacIntel,55.55555556,3,33,135,25,1,,,,,
