response.time,response,cueTarget,rand_foil_1,rand_foil_2,prac_trials.thisRepN,prac_trials.thisTrialN,prac_trials.thisN,prac_trials.thisIndex,prac_trials.ran,word_1,word_2,cue,file_path,participant,age,gender,handedness,date,expName,psychopyVersion,OS,frameRate,trials.thisRepN,trials.thisTrialN,trials.thisN,trials.thisIndex,trials.ran,catchTrials.thisRepN,catchTrials.thisTrialN,catchTrials.thisN,catchTrials.thisIndex,catchTrials.ran
,,shortValid,ANCHOR,JANITOR,0,0,0,11,1,KETCHUP,GONDOLA,long,resources/sound/prac_trials/practice_cue_human11.mp3,60fdb169b488e61fd32728d5,33,Male,Right handed,2021-07-26_20h56.04.093,MA Experiment 2,2021.1.2,Win32,59.85515054,,,,,,,,,,
1.9764,response_2,shortValid,DECOY,POTATO,0,1,1,6,1,VACANT,SALVATION,long,resources/sound/prac_trials/practice_cue6.mp3,60fdb169b488e61fd32728d5,33,Male,Right handed,2021-07-26_20h56.04.093,MA Experiment 2,2021.1.2,Win32,59.85515054,,,,,,,,,,
3.8767,response_1,shortFoil,BUTTER,GOVERNMENT,0,2,2,0,1,AARDVARK,FALLACY,short,resources/sound/prac_trials/practice_cue0.mp3,60fdb169b488e61fd32728d5,33,Male,Right handed,2021-07-26_20h56.04.093,MA Experiment 2,2021.1.2,Win32,59.85515054,,,,,,,,,,
2.8162,response_2,longFoil,CIGAR,GORILLA,0,3,3,8,1,DAGGER,EMPHASIS,long,resources/sound/prac_trials/practice_cue8.mp3,60fdb169b488e61fd32728d5,33,Male,Right handed,2021-07-26_20h56.04.093,MA Experiment 2,2021.1.2,Win32,59.85515054,,,,,,,,,,
1.8481,response_2,shortValid,TEMPLE,FISHERMAN,0,4,4,2,1,RECENT,TOBACCO,short,resources/sound/prac_trials/practice_cue2.mp3,60fdb169b488e61fd32728d5,33,Male,Right handed,2021-07-26_20h56.04.093,MA Experiment 2,2021.1.2,Win32,59.85515054,,,,,,,,,,
1.3909,response_1,shortFoil,SEGMENT,MESSENGER,0,5,5,1,1,CABLE,REPUBLIC,short,resources/sound/prac_trials/practice_cue_human1.mp3,60fdb169b488e61fd32728d5,33,Male,Right handed,2021-07-26_20h56.04.093,MA Experiment 2,2021.1.2,Win32,59.85515054,,,,,,,,,,
2.1738,response_2,longValid,RABBI,FIREWOOD,0,6,6,9,1,GRUMPY,LABYRINTH,long,resources/sound/prac_trials/practice_cue_human9.mp3,60fdb169b488e61fd32728d5,33,Male,Right handed,2021-07-26_20h56.04.093,MA Experiment 2,2021.1.2,Win32,59.85515054,,,,,,,,,,
2.0228,response_2,longFoil,PRINCESS,DIAMOND,0,7,7,5,1,NONSENSE,OASIS,short,resources/sound/prac_trials/practice_cue_human5.mp3,60fdb169b488e61fd32728d5,33,Male,Right handed,2021-07-26_20h56.04.093,MA Experiment 2,2021.1.2,Win32,59.85515054,,,,,,,,,,
1.3964,response_1,shortValid,GRADUATE,GINGERBREAD,0,8,8,10,1,SAFFRON,JAVELIN,long,resources/sound/prac_trials/practice_cue10.mp3,60fdb169b488e61fd32728d5,33,Male,Right handed,2021-07-26_20h56.04.093,MA Experiment 2,2021.1.2,Win32,59.85515054,,,,,,,,,,
1.6687,response_2,longValid,CAPTAIN,HURRICANE,0,9,9,7,1,BUCKLE,WALLABY,long,resources/sound/prac_trials/practice_cue_human7.mp3,60fdb169b488e61fd32728d5,33,Male,Right handed,2021-07-26_20h56.04.093,MA Experiment 2,2021.1.2,Win32,59.85515054,,,,,,,,,,
2.8793,response_1,longValid,MORNING,TANGERINE,0,10,10,3,1,EAGER,QUALIFY,short,resources/sound/prac_trials/practice_cue_human3.mp3,60fdb169b488e61fd32728d5,33,Male,Right handed,2021-07-26_20h56.04.093,MA Experiment 2,2021.1.2,Win32,59.85515054,,,,,,,,,,
1.9132,response_2,longFoil,HAMMER,ENAMEL,0,11,11,4,1,FIZZY,ELECTRIC,short,resources/sound/prac_trials/practice_cue4.mp3,60fdb169b488e61fd32728d5,33,Male,Right handed,2021-07-26_20h56.04.093,MA Experiment 2,2021.1.2,Win32,59.85515054,,,,,,,,,,
2.0297,response_2,shortFoil,WAFER,CORRIDOR,,,,,,SACRED,GALAXY,long,resources/sound/trials/audio_stim_comp1.mp3,60fdb169b488e61fd32728d5,33,Male,Right handed,2021-07-26_20h56.04.093,MA Experiment 2,2021.1.2,Win32,59.85515054,0,0,0,24,1,,,,,
2.4077,response_2,longValid,FERTILE,HANDKERCHIEF,,,,,,BRAINSTORM,GREEN NEEDLE,short,resources/sound/trials/audio_stim_original.mp3,60fdb169b488e61fd32728d5,33,Male,Right handed,2021-07-26_20h56.04.093,MA Experiment 2,2021.1.2,Win32,59.85515054,0,1,1,16,1,,,,,
1.9913,response_1,shortFoil,LOBSTER,CIGARETTE,,,,,,PAINTER,VEHICLE,short,resources/sound/trials/audio_stim_human47.mp3,60fdb169b488e61fd32728d5,33,Male,Right handed,2021-07-26_20h56.04.093,MA Experiment 2,2021.1.2,Win32,59.85515054,0,2,2,11,1,,,,,
2.2912,response_1,,VESSEL,ENVELOPE,,,,,,POISON,REVOLVER,short,resources/sound/catchTrials/audio_control_human_project01.mp3,60fdb169b488e61fd32728d5,33,Male,Right handed,2021-07-26_20h56.04.093,MA Experiment 2,2021.1.2,Win32,59.85515054,,,,,,0,21,21,9,1
2.6064,response_2,longFoil,MUSCLE,AVENUE,,,,,,MINER,EMERALD,short,resources/sound/trials/audio_stim_human6.mp3,60fdb169b488e61fd32728d5,33,Male,Right handed,2021-07-26_20h56.04.093,MA Experiment 2,2021.1.2,Win32,59.85515054,0,3,3,13,1,,,,,
2.0138,response_2,longFoil,RUSTY,CLARINET,,,,,,CONCRETE,ENEMY,short,resources/sound/trials/audio_stim_human67.mp3,60fdb169b488e61fd32728d5,33,Male,Right handed,2021-07-26_20h56.04.093,MA Experiment 2,2021.1.2,Win32,59.85515054,0,4,4,10,1,,,,,
1.6885,response_1,shortFoil,SHOULDER,CINNAMON,,,,,,WORKER,VISITOR,long,resources/sound/trials/audio_stim_comp17.mp3,60fdb169b488e61fd32728d5,33,Male,Right handed,2021-07-26_20h56.04.093,MA Experiment 2,2021.1.2,Win32,59.85515054,0,5,5,23,1,,,,,
2.8419,response_1,shortFoil,MOONLIGHT,MINISTER,,,,,,DAYLIGHT,MATERIAL,long,resources/sound/trials/audio_stim_human42.mp3,60fdb169b488e61fd32728d5,33,Male,Right handed,2021-07-26_20h56.04.093,MA Experiment 2,2021.1.2,Win32,59.85515054,0,6,6,26,1,,,,,
1.8638,response_1,,BERRY,ABDOMEN,,,,,,VIOLET,LUBRICANT,short,resources/sound/catchTrials/audio_control_comp_project07.mp3,60fdb169b488e61fd32728d5,33,Male,Right handed,2021-07-26_20h56.04.093,MA Experiment 2,2021.1.2,Win32,59.85515054,,,,,,0,1,1,3,1
1.5961,response_1,shortValid,WIRE,OPENING,,,,,,DRIZZLE,CARDINAL,long,resources/sound/trials/audio_stim_comp69.mp3,60fdb169b488e61fd32728d5,33,Male,Right handed,2021-07-26_20h56.04.093,MA Experiment 2,2021.1.2,Win32,59.85515054,0,7,7,17,1,,,,,
2.4589,response_1,shortFoil,PATIENT,CONVENTION,,,,,,HARDWARE,OVERCOAT,long,resources/sound/trials/audio_stim_human35.mp3,60fdb169b488e61fd32728d5,33,Male,Right handed,2021-07-26_20h56.04.093,MA Experiment 2,2021.1.2,Win32,59.85515054,0,8,8,25,1,,,,,
2.0477,response_2,shortFoil,KERNEL,SETTLEMENT,,,,,,RECEIPT,LIMOUSINE,long,resources/sound/trials/audio_stim_comp40.mp3,60fdb169b488e61fd32728d5,33,Male,Right handed,2021-07-26_20h56.04.093,MA Experiment 2,2021.1.2,Win32,59.85515054,0,9,9,19,1,,,,,
1.9132,response_1,shortValid,FAIRY,PROFESSOR,,,,,,HARDWARE,OVERCOAT,short,resources/sound/trials/audio_stim_human35.mp3,60fdb169b488e61fd32728d5,33,Male,Right handed,2021-07-26_20h56.04.093,MA Experiment 2,2021.1.2,Win32,59.85515054,0,10,10,8,1,,,,,
0.7373,response_2,,CHIPMUNK,CARNATION,,,,,,NAVY,RECTANGLE,long,resources/sound/catchTrials/audio_control_comp_project06.mp3,60fdb169b488e61fd32728d5,33,Male,Right handed,2021-07-26_20h56.04.093,MA Experiment 2,2021.1.2,Win32,59.85515054,,,,,,0,8,8,22,1
2.7737,response_1,longFoil,CURFEW,FACTORY,,,,,,DAYLIGHT,MATERIAL,short,resources/sound/trials/audio_stim_human42.mp3,60fdb169b488e61fd32728d5,33,Male,Right handed,2021-07-26_20h56.04.093,MA Experiment 2,2021.1.2,Win32,59.85515054,0,11,11,9,1,,,,,
1.7504,response_1,longValid,UNCLE,FAMILY,,,,,,ATHLETE,IVORY,short,resources/sound/trials/audio_stim_comp57.mp3,60fdb169b488e61fd32728d5,33,Male,Right handed,2021-07-26_20h56.04.093,MA Experiment 2,2021.1.2,Win32,59.85515054,0,12,12,5,1,,,,,
2.5741,response_1,longValid,MURDER,MINERAL,,,,,,PARTY,SANCTUARY,long,resources/sound/trials/audio_stim_human50.mp3,60fdb169b488e61fd32728d5,33,Male,Right handed,2021-07-26_20h56.04.093,MA Experiment 2,2021.1.2,Win32,59.85515054,0,13,13,31,1,,,,,
2.0974,response_2,shortValid,DANCER,PHYSICIAN,,,,,,RUBBER,PROPERTY,short,resources/sound/trials/audio_stim_human0.mp3,60fdb169b488e61fd32728d5,33,Male,Right handed,2021-07-26_20h56.04.093,MA Experiment 2,2021.1.2,Win32,59.85515054,0,14,14,12,1,,,,,
2.1145,response_2,,FOREARM,DISSECTION,,,,,,NAVY,RECTANGLE,long,resources/sound/catchTrials/audio_control_human_project06.mp3,60fdb169b488e61fd32728d5,33,Male,Right handed,2021-07-26_20h56.04.093,MA Experiment 2,2021.1.2,Win32,59.85515054,,,,,,0,11,11,30,1
2.1693,response_2,longFoil,DIVING,MEDICINE,,,,,,ROBBER,RATTLESNAKE,long,resources/sound/trials/audio_stim_human64.mp3,60fdb169b488e61fd32728d5,33,Male,Right handed,2021-07-26_20h56.04.093,MA Experiment 2,2021.1.2,Win32,59.85515054,0,15,15,32,1,,,,,
3.225,response_2,longFoil,POLO,AMMONIA,,,,,,RECEIPT,LIMOUSINE,short,resources/sound/trials/audio_stim_comp40.mp3,60fdb169b488e61fd32728d5,33,Male,Right handed,2021-07-26_20h56.04.093,MA Experiment 2,2021.1.2,Win32,59.85515054,0,16,16,2,1,,,,,
2.0256,response_1,shortValid,TWEEZER,MICROSCOPE,,,,,,WHISTLE,TREASURER,short,resources/sound/trials/audio_stim_comp12.mp3,60fdb169b488e61fd32728d5,33,Male,Right handed,2021-07-26_20h56.04.093,MA Experiment 2,2021.1.2,Win32,59.85515054,0,17,17,3,1,,,,,
2.105,response_1,shortFoil,STOCKING,INJURY,,,,,,MARBLE,CUSTOMER,short,resources/sound/trials/audio_stim_comp65.mp3,60fdb169b488e61fd32728d5,33,Male,Right handed,2021-07-26_20h56.04.093,MA Experiment 2,2021.1.2,Win32,59.85515054,0,18,18,4,1,,,,,
1.5239,response_2,,SCOOTER,INSTRUMENT,,,,,,ICY,JITTERBUG,long,resources/sound/catchTrials/audio_control_comp_project08.mp3,60fdb169b488e61fd32728d5,33,Male,Right handed,2021-07-26_20h56.04.093,MA Experiment 2,2021.1.2,Win32,59.85515054,,,,,,0,12,12,23,1
1.9579,response_2,longFoil,SOFA,CABINET,,,,,,BRAINSTORM,GREEN NEEDLE,long,resources/sound/trials/audio_stim_original.mp3,60fdb169b488e61fd32728d5,33,Male,Right handed,2021-07-26_20h56.04.093,MA Experiment 2,2021.1.2,Win32,59.85515054,0,19,19,33,1,,,,,
1.5915,response_2,longValid,DOORWAY,HEROIN,,,,,,RUBBER,PROPERTY,long,resources/sound/trials/audio_stim_human0.mp3,60fdb169b488e61fd32728d5,33,Male,Right handed,2021-07-26_20h56.04.093,MA Experiment 2,2021.1.2,Win32,59.85515054,0,20,20,29,1,,,,,
2.508,response_1,longValid,PICTURE,MERCURY,,,,,,WORKER,VISITOR,short,resources/sound/trials/audio_stim_comp17.mp3,60fdb169b488e61fd32728d5,33,Male,Right handed,2021-07-26_20h56.04.093,MA Experiment 2,2021.1.2,Win32,59.85515054,0,21,21,6,1,,,,,
3.0156,response_1,shortFoil,DUEL,ASBESTOS,,,,,,PAINTER,VEHICLE,long,resources/sound/trials/audio_stim_human47.mp3,60fdb169b488e61fd32728d5,33,Male,Right handed,2021-07-26_20h56.04.093,MA Experiment 2,2021.1.2,Win32,59.85515054,0,22,22,28,1,,,,,
2.5794,response_2,,PIANO,HOSPITAL,,,,,,JOURNAL,ROBBERY,long,resources/sound/catchTrials/audio_control_human_project02.mp3,60fdb169b488e61fd32728d5,33,Male,Right handed,2021-07-26_20h56.04.093,MA Experiment 2,2021.1.2,Win32,59.85515054,,,,,,0,22,22,29,1
3.0742,response_1,shortFoil,MEDICINE,PROJECTOR,,,,,,DRIZZLE,CARDINAL,short,resources/sound/trials/audio_stim_comp69.mp3,60fdb169b488e61fd32728d5,33,Male,Right handed,2021-07-26_20h56.04.093,MA Experiment 2,2021.1.2,Win32,59.85515054,0,23,23,0,1,,,,,
2.7244,response_1,longValid,VILLAGE,POLICEMAN,,,,,,MARBLE,CUSTOMER,long,resources/sound/trials/audio_stim_comp65.mp3,60fdb169b488e61fd32728d5,33,Male,Right handed,2021-07-26_20h56.04.093,MA Experiment 2,2021.1.2,Win32,59.85515054,0,24,24,21,1,,,,,
1.991,response_2,shortFoil,PERSON,ALPHABET,,,,,,SACRED,GALAXY,short,resources/sound/trials/audio_stim_comp1.mp3,60fdb169b488e61fd32728d5,33,Male,Right handed,2021-07-26_20h56.04.093,MA Experiment 2,2021.1.2,Win32,59.85515054,0,25,25,7,1,,,,,
2.2307,response_2,longValid,PIPING,LECTURER,,,,,,MINER,EMERALD,long,resources/sound/trials/audio_stim_human6.mp3,60fdb169b488e61fd32728d5,33,Male,Right handed,2021-07-26_20h56.04.093,MA Experiment 2,2021.1.2,Win32,59.85515054,0,26,26,30,1,,,,,
2.414,response_2,,SINGER,INDUSTRY,,,,,,HOBBY,COLONY,long,resources/sound/catchTrials/audio_control_human_project04.mp3,60fdb169b488e61fd32728d5,33,Male,Right handed,2021-07-26_20h56.04.093,MA Experiment 2,2021.1.2,Win32,59.85515054,,,,,,0,10,10,27,1
3.0311,response_1,longFoil,HAMSTER,ADMIRAL,,,,,,ATHLETE,IVORY,long,resources/sound/trials/audio_stim_comp57.mp3,60fdb169b488e61fd32728d5,33,Male,Right handed,2021-07-26_20h56.04.093,MA Experiment 2,2021.1.2,Win32,59.85515054,0,27,27,22,1,,,,,
1.4237,response_1,shortValid,WRITING,PROPELLER,,,,,,CONCRETE,ENEMY,long,resources/sound/trials/audio_stim_human67.mp3,60fdb169b488e61fd32728d5,33,Male,Right handed,2021-07-26_20h56.04.093,MA Experiment 2,2021.1.2,Win32,59.85515054,0,28,28,27,1,,,,,
1.5405,response_2,longFoil,INCOME,CANDLELIGHT,,,,,,ROBBER,RATTLESNAKE,short,resources/sound/trials/audio_stim_human64.mp3,60fdb169b488e61fd32728d5,33,Male,Right handed,2021-07-26_20h56.04.093,MA Experiment 2,2021.1.2,Win32,59.85515054,0,29,29,15,1,,,,,
,,shortValid,NURSERY,ALCOHOL,,,,,,MINER,EMERALD,long,resources/sound/trials/audio_stim_comp6.mp3,60fdb169b488e61fd32728d5,33,Male,Right handed,2021-07-26_20h56.04.093,MA Experiment 2,2021.1.2,Win32,59.85515054,0,30,30,18,1,,,,,
2.2625,response_2,,MISTRESS,HEADQUARTERS,,,,,,NAVY,RECTANGLE,short,resources/sound/catchTrials/audio_control_human_project06.mp3,60fdb169b488e61fd32728d5,33,Male,Right handed,2021-07-26_20h56.04.093,MA Experiment 2,2021.1.2,Win32,59.85515054,,,,,,0,23,23,14,1
2.4734,response_2,shortValid,NOVEL,CHOCOLATE,,,,,,PARTY,SANCTUARY,short,resources/sound/trials/audio_stim_human50.mp3,60fdb169b488e61fd32728d5,33,Male,Right handed,2021-07-26_20h56.04.093,MA Experiment 2,2021.1.2,Win32,59.85515054,0,31,31,14,1,,,,,
3.8913,response_2,shortValid,SULPHUR,ATHLETICS,,,,,,WHISTLE,TREASURER,long,resources/sound/trials/audio_stim_comp12.mp3,60fdb169b488e61fd32728d5,33,Male,Right handed,2021-07-26_20h56.04.093,MA Experiment 2,2021.1.2,Win32,59.85515054,0,32,32,20,1,,,,,
1.6738,response_1,shortValid,MEASLES,RETAILER,,,,,,MINER,EMERALD,short,resources/sound/trials/audio_stim_comp6.mp3,60fdb169b488e61fd32728d5,33,Male,Right handed,2021-07-26_20h56.04.093,MA Experiment 2,2021.1.2,Win32,59.85515054,0,33,33,1,1,,,,,
2.5577,response_1,shortValid,TRAITOR,ORNAMENT,,,,,,MARBLE,CUSTOMER,short,resources/sound/trials/audio_stim_comp65.mp3,60fdb169b488e61fd32728d5,33,Male,Right handed,2021-07-26_20h56.04.093,MA Experiment 2,2021.1.2,Win32,59.85515054,1,0,34,4,1,,,,,
2.1419,response_1,longValid,CRYSTAL,HONEYMOON,,,,,,WHISTLE,TREASURER,long,resources/sound/trials/audio_stim_comp12.mp3,60fdb169b488e61fd32728d5,33,Male,Right handed,2021-07-26_20h56.04.093,MA Experiment 2,2021.1.2,Win32,59.85515054,1,1,35,20,1,,,,,
3.3977,response_2,longValid,SHEEPSKIN,SAXOPHONE,,,,,,ROBBER,RATTLESNAKE,short,resources/sound/trials/audio_stim_human64.mp3,60fdb169b488e61fd32728d5,33,Male,Right handed,2021-07-26_20h56.04.093,MA Experiment 2,2021.1.2,Win32,59.85515054,1,2,36,15,1,,,,,
2.1189,response_2,,DIAL,BEVERAGE,,,,,,HOBBY,COLONY,short,resources/sound/catchTrials/audio_control_human_project04.mp3,60fdb169b488e61fd32728d5,33,Male,Right handed,2021-07-26_20h56.04.093,MA Experiment 2,2021.1.2,Win32,59.85515054,,,,,,0,24,24,11,1
2.1087,response_2,shortFoil,LEADER,CATHEDRAL,,,,,,BRAINSTORM,GREEN NEEDLE,long,resources/sound/trials/audio_stim_original.mp3,60fdb169b488e61fd32728d5,33,Male,Right handed,2021-07-26_20h56.04.093,MA Experiment 2,2021.1.2,Win32,59.85515054,1,3,37,33,1,,,,,
,,shortFoil,SODA,MOSQUITO,,,,,,RECEIPT,LIMOUSINE,short,resources/sound/trials/audio_stim_comp40.mp3,60fdb169b488e61fd32728d5,33,Male,Right handed,2021-07-26_20h56.04.093,MA Experiment 2,2021.1.2,Win32,59.85515054,1,4,38,2,1,,,,,
1.3742,response_2,shortValid,WINDOW,INSTITUTE,,,,,,PARTY,SANCTUARY,long,resources/sound/trials/audio_stim_human50.mp3,60fdb169b488e61fd32728d5,33,Male,Right handed,2021-07-26_20h56.04.093,MA Experiment 2,2021.1.2,Win32,59.85515054,1,5,39,31,1,,,,,
1.3113,response_2,longFoil,BURNER,POLIO,,,,,,PARTY,SANCTUARY,short,resources/sound/trials/audio_stim_human50.mp3,60fdb169b488e61fd32728d5,33,Male,Right handed,2021-07-26_20h56.04.093,MA Experiment 2,2021.1.2,Win32,59.85515054,1,6,40,14,1,,,,,
1.2925,response_2,,JURY,INFECTION,,,,,,IRIS,VIOLIN,short,resources/sound/catchTrials/audio_control_human_project12.mp3,60fdb169b488e61fd32728d5,33,Male,Right handed,2021-07-26_20h56.04.093,MA Experiment 2,2021.1.2,Win32,59.85515054,,,,,,0,18,18,8,1
3.4582,response_2,longFoil,SADDLE,GYMNASTICS,,,,,,PAINTER,VEHICLE,long,resources/sound/trials/audio_stim_human47.mp3,60fdb169b488e61fd32728d5,33,Male,Right handed,2021-07-26_20h56.04.093,MA Experiment 2,2021.1.2,Win32,59.85515054,1,7,41,28,1,,,,,
2.2911,response_2,longFoil,WALRUS,GRASSHOPPER,,,,,,SACRED,GALAXY,long,resources/sound/trials/audio_stim_comp1.mp3,60fdb169b488e61fd32728d5,33,Male,Right handed,2021-07-26_20h56.04.093,MA Experiment 2,2021.1.2,Win32,59.85515054,1,8,42,24,1,,,,,
2.525,response_2,longValid,ACRE,DESTROYER,,,,,,HARDWARE,OVERCOAT,short,resources/sound/trials/audio_stim_human35.mp3,60fdb169b488e61fd32728d5,33,Male,Right handed,2021-07-26_20h56.04.093,MA Experiment 2,2021.1.2,Win32,59.85515054,1,9,43,8,1,,,,,
2.3594,response_1,longValid,STATION,BUTTERFLY,,,,,,RECEIPT,LIMOUSINE,long,resources/sound/trials/audio_stim_comp40.mp3,60fdb169b488e61fd32728d5,33,Male,Right handed,2021-07-26_20h56.04.093,MA Experiment 2,2021.1.2,Win32,59.85515054,1,10,44,19,1,,,,,
0.9954,response_2,,GIRDLE,REFEREE,,,,,,SPINACH,APRICOT,short,resources/sound/catchTrials/audio_control_comp_project18.mp3,60fdb169b488e61fd32728d5,33,Male,Right handed,2021-07-26_20h56.04.093,MA Experiment 2,2021.1.2,Win32,59.85515054,,,,,,0,28,28,5,1
3.7463,response_2,shortValid,BISHOP,ACROBAT,,,,,,ATHLETE,IVORY,long,resources/sound/trials/audio_stim_comp57.mp3,60fdb169b488e61fd32728d5,33,Male,Right handed,2021-07-26_20h56.04.093,MA Experiment 2,2021.1.2,Win32,59.85515054,1,11,45,22,1,,,,,
3.2658,response_2,shortFoil,HURDLE,INSTRUCTOR,,,,,,BRAINSTORM,GREEN NEEDLE,short,resources/sound/trials/audio_stim_original.mp3,60fdb169b488e61fd32728d5,33,Male,Right handed,2021-07-26_20h56.04.093,MA Experiment 2,2021.1.2,Win32,59.85515054,1,12,46,16,1,,,,,
1.7387,response_1,longFoil,OFFICE,GALLERY,,,,,,DRIZZLE,CARDINAL,long,resources/sound/trials/audio_stim_comp69.mp3,60fdb169b488e61fd32728d5,33,Male,Right handed,2021-07-26_20h56.04.093,MA Experiment 2,2021.1.2,Win32,59.85515054,1,13,47,17,1,,,,,
2.7335,response_1,longValid,VALLEY,SPECIALIST,,,,,,PAINTER,VEHICLE,short,resources/sound/trials/audio_stim_human47.mp3,60fdb169b488e61fd32728d5,33,Male,Right handed,2021-07-26_20h56.04.093,MA Experiment 2,2021.1.2,Win32,59.85515054,1,14,48,11,1,,,,,
3.0074,response_2,,EVENING,FURNITURE,,,,,,CORNER,ENGINEER,short,resources/sound/catchTrials/audio_control_human_project14.mp3,60fdb169b488e61fd32728d5,33,Male,Right handed,2021-07-26_20h56.04.093,MA Experiment 2,2021.1.2,Win32,59.85515054,,,,,,0,0,0,10,1
1.5312,response_1,shortFoil,TORTURE,AMBULANCE,,,,,,MINER,EMERALD,long,resources/sound/trials/audio_stim_comp6.mp3,60fdb169b488e61fd32728d5,33,Male,Right handed,2021-07-26_20h56.04.093,MA Experiment 2,2021.1.2,Win32,59.85515054,1,15,49,18,1,,,,,
1.8947,response_1,shortFoil,NEIGHBOUR,ICICLE,,,,,,MINER,EMERALD,short,resources/sound/trials/audio_stim_comp6.mp3,60fdb169b488e61fd32728d5,33,Male,Right handed,2021-07-26_20h56.04.093,MA Experiment 2,2021.1.2,Win32,59.85515054,1,16,50,1,1,,,,,
2.1748,response_1,shortValid,NAPKIN,OXYGEN,,,,,,ATHLETE,IVORY,short,resources/sound/trials/audio_stim_comp57.mp3,60fdb169b488e61fd32728d5,33,Male,Right handed,2021-07-26_20h56.04.093,MA Experiment 2,2021.1.2,Win32,59.85515054,1,17,51,5,1,,,,,
2.604,response_1,longFoil,EARTHWORM,PHOTOGRAPH,,,,,,WORKER,VISITOR,long,resources/sound/trials/audio_stim_comp17.mp3,60fdb169b488e61fd32728d5,33,Male,Right handed,2021-07-26_20h56.04.093,MA Experiment 2,2021.1.2,Win32,59.85515054,1,18,52,23,1,,,,,
1.8092,response_2,,DWELLER,ANTIQUE,,,,,,IRIS,VIOLIN,short,resources/sound/catchTrials/audio_control_comp_project12.mp3,60fdb169b488e61fd32728d5,33,Male,Right handed,2021-07-26_20h56.04.093,MA Experiment 2,2021.1.2,Win32,59.85515054,,,,,,0,6,6,4,1
1.5916,response_1,longValid,PODIUM,LEMONADE,,,,,,HARDWARE,OVERCOAT,long,resources/sound/trials/audio_stim_human35.mp3,60fdb169b488e61fd32728d5,33,Male,Right handed,2021-07-26_20h56.04.093,MA Experiment 2,2021.1.2,Win32,59.85515054,1,19,53,25,1,,,,,
2.4264,response_1,longFoil,LIGHTNING,TEMPERATURE,,,,,,MARBLE,CUSTOMER,long,resources/sound/trials/audio_stim_comp65.mp3,60fdb169b488e61fd32728d5,33,Male,Right handed,2021-07-26_20h56.04.093,MA Experiment 2,2021.1.2,Win32,59.85515054,1,20,54,21,1,,,,,
2.1221,response_1,shortFoil,FEVER,COMMITTEE,,,,,,CONCRETE,ENEMY,long,resources/sound/trials/audio_stim_human67.mp3,60fdb169b488e61fd32728d5,33,Male,Right handed,2021-07-26_20h56.04.093,MA Experiment 2,2021.1.2,Win32,59.85515054,1,21,55,27,1,,,,,
1.2927,response_1,longValid,MURAL,STRAWBERRY,,,,,,MINER,EMERALD,short,resources/sound/trials/audio_stim_human6.mp3,60fdb169b488e61fd32728d5,33,Male,Right handed,2021-07-26_20h56.04.093,MA Experiment 2,2021.1.2,Win32,59.85515054,1,22,56,13,1,,,,,
2.0919,response_2,,VAPOUR,NEWSPAPER,,,,,,BORDER,ALGEBRA,long,resources/sound/catchTrials/audio_control_comp_project00.mp3,60fdb169b488e61fd32728d5,33,Male,Right handed,2021-07-26_20h56.04.093,MA Experiment 2,2021.1.2,Win32,59.85515054,,,,,,0,4,4,16,1
2.5768,response_1,longValid,OLIVE,NEIGHBOURHOOD,,,,,,DAYLIGHT,MATERIAL,short,resources/sound/trials/audio_stim_human42.mp3,60fdb169b488e61fd32728d5,33,Male,Right handed,2021-07-26_20h56.04.093,MA Experiment 2,2021.1.2,Win32,59.85515054,1,23,57,9,1,,,,,
2.0578,response_2,shortValid,LIQUID,APPLIANCE,,,,,,MINER,EMERALD,long,resources/sound/trials/audio_stim_human6.mp3,60fdb169b488e61fd32728d5,33,Male,Right handed,2021-07-26_20h56.04.093,MA Experiment 2,2021.1.2,Win32,59.85515054,1,24,58,30,1,,,,,
2.0903,response_1,longFoil,CABIN,MECHANIC,,,,,,SACRED,GALAXY,short,resources/sound/trials/audio_stim_comp1.mp3,60fdb169b488e61fd32728d5,33,Male,Right handed,2021-07-26_20h56.04.093,MA Experiment 2,2021.1.2,Win32,59.85515054,1,25,59,7,1,,,,,
1.7089,response_1,shortFoil,INVOICE,CROCODILE,,,,,,RUBBER,PROPERTY,short,resources/sound/trials/audio_stim_human0.mp3,60fdb169b488e61fd32728d5,33,Male,Right handed,2021-07-26_20h56.04.093,MA Experiment 2,2021.1.2,Win32,59.85515054,1,26,60,12,1,,,,,
3.108,response_2,,NATIVE,UMBRELLA,,,,,,SPINACH,APRICOT,long,resources/sound/catchTrials/audio_control_comp_project18.mp3,60fdb169b488e61fd32728d5,33,Male,Right handed,2021-07-26_20h56.04.093,MA Experiment 2,2021.1.2,Win32,59.85515054,,,,,,0,3,3,21,1
2.7912,response_1,shortFoil,FATHER,VINEGAR,,,,,,WORKER,VISITOR,short,resources/sound/trials/audio_stim_comp17.mp3,60fdb169b488e61fd32728d5,33,Male,Right handed,2021-07-26_20h56.04.093,MA Experiment 2,2021.1.2,Win32,59.85515054,1,27,61,6,1,,,,,
3.798,response_1,shortValid,CANTEEN,CAPITAL,,,,,,DRIZZLE,CARDINAL,short,resources/sound/trials/audio_stim_comp69.mp3,60fdb169b488e61fd32728d5,33,Male,Right handed,2021-07-26_20h56.04.093,MA Experiment 2,2021.1.2,Win32,59.85515054,1,28,62,0,1,,,,,
3.8916,response_2,shortFoil,BEETLE,ATTENDANT,,,,,,CONCRETE,ENEMY,short,resources/sound/trials/audio_stim_human67.mp3,60fdb169b488e61fd32728d5,33,Male,Right handed,2021-07-26_20h56.04.093,MA Experiment 2,2021.1.2,Win32,59.85515054,1,29,63,10,1,,,,,
1.3316,response_2,shortValid,NECKLACE,CITIZEN,,,,,,RUBBER,PROPERTY,long,resources/sound/trials/audio_stim_human0.mp3,60fdb169b488e61fd32728d5,33,Male,Right handed,2021-07-26_20h56.04.093,MA Experiment 2,2021.1.2,Win32,59.85515054,1,30,64,29,1,,,,,
1.0932,response_1,,KETTLE,CAMERA,,,,,,VIOLET,LUBRICANT,long,resources/sound/catchTrials/audio_control_human_project07.mp3,60fdb169b488e61fd32728d5,33,Male,Right handed,2021-07-26_20h56.04.093,MA Experiment 2,2021.1.2,Win32,59.85515054,,,,,,0,16,16,28,1
2.2476,response_2,longFoil,TUMBLE,INTERVIEW,,,,,,DAYLIGHT,MATERIAL,long,resources/sound/trials/audio_stim_human42.mp3,60fdb169b488e61fd32728d5,33,Male,Right handed,2021-07-26_20h56.04.093,MA Experiment 2,2021.1.2,Win32,59.85515054,1,31,65,26,1,,,,,
1.6892,response_1,longFoil,KENNEL,EMULSION,,,,,,WHISTLE,TREASURER,short,resources/sound/trials/audio_stim_comp12.mp3,60fdb169b488e61fd32728d5,33,Male,Right handed,2021-07-26_20h56.04.093,MA Experiment 2,2021.1.2,Win32,59.85515054,1,32,66,3,1,,,,,
1.8746,response_1,longValid,HARBOUR,MONUMENT,,,,,,ROBBER,RATTLESNAKE,long,resources/sound/trials/audio_stim_human64.mp3,60fdb169b488e61fd32728d5,33,Male,Right handed,2021-07-26_20h56.04.093,MA Experiment 2,2021.1.2,Win32,59.85515054,1,33,67,32,1,,,,,
2.2247,response_1,shortFoil,CEREAL,MOLECULE,,,,,,PARTY,SANCTUARY,short,resources/sound/trials/audio_stim_human50.mp3,60fdb169b488e61fd32728d5,33,Male,Right handed,2021-07-26_20h56.04.093,MA Experiment 2,2021.1.2,Win32,59.85515054,2,0,68,14,1,,,,,
1.5375,response_2,shortFoil,NEIGHBOUR,ABDOMEN,,,,,,HARDWARE,OVERCOAT,short,resources/sound/trials/audio_stim_human35.mp3,60fdb169b488e61fd32728d5,33,Male,Right handed,2021-07-26_20h56.04.093,MA Experiment 2,2021.1.2,Win32,59.85515054,2,1,69,8,1,,,,,
1.9092,response_2,longValid,TEMPLE,DIAMOND,,,,,,BRAINSTORM,GREEN NEEDLE,long,resources/sound/trials/audio_stim_original.mp3,60fdb169b488e61fd32728d5,33,Male,Right handed,2021-07-26_20h56.04.093,MA Experiment 2,2021.1.2,Win32,59.85515054,2,2,70,33,1,,,,,
1.2655,response_2,,HURDLE,GRASSHOPPER,,,,,,CORNER,ENGINEER,long,resources/sound/catchTrials/audio_control_human_project14.mp3,60fdb169b488e61fd32728d5,33,Male,Right handed,2021-07-26_20h56.04.093,MA Experiment 2,2021.1.2,Win32,59.85515054,,,,,,0,31,31,26,1
1.8813,response_1,longFoil,PIPING,FURNITURE,,,,,,HARDWARE,OVERCOAT,long,resources/sound/trials/audio_stim_human35.mp3,60fdb169b488e61fd32728d5,33,Male,Right handed,2021-07-26_20h56.04.093,MA Experiment 2,2021.1.2,Win32,59.85515054,2,3,71,25,1,,,,,
2.5076,response_2,shortFoil,PIANO,STRAWBERRY,,,,,,ATHLETE,IVORY,long,resources/sound/trials/audio_stim_comp57.mp3,60fdb169b488e61fd32728d5,33,Male,Right handed,2021-07-26_20h56.04.093,MA Experiment 2,2021.1.2,Win32,59.85515054,2,4,72,22,1,,,,,
2.8567,response_2,shortValid,SHEEPSKIN,MINERAL,,,,,,DAYLIGHT,MATERIAL,short,resources/sound/trials/audio_stim_human42.mp3,60fdb169b488e61fd32728d5,33,Male,Right handed,2021-07-26_20h56.04.093,MA Experiment 2,2021.1.2,Win32,59.85515054,2,5,73,9,1,,,,,
2.1085,response_1,longValid,HAMSTER,SETTLEMENT,,,,,,WORKER,VISITOR,long,resources/sound/trials/audio_stim_comp17.mp3,60fdb169b488e61fd32728d5,33,Male,Right handed,2021-07-26_20h56.04.093,MA Experiment 2,2021.1.2,Win32,59.85515054,2,6,74,23,1,,,,,
2.1977,response_2,,CIGAR,MESSENGER,,,,,,IRIS,VIOLIN,long,resources/sound/catchTrials/audio_control_human_project12.mp3,60fdb169b488e61fd32728d5,33,Male,Right handed,2021-07-26_20h56.04.093,MA Experiment 2,2021.1.2,Win32,59.85515054,,,,,,0,17,17,24,1
0.9425,response_2,shortFoil,UNCLE,HEROIN,,,,,,MARBLE,CUSTOMER,long,resources/sound/trials/audio_stim_comp65.mp3,60fdb169b488e61fd32728d5,33,Male,Right handed,2021-07-26_20h56.04.093,MA Experiment 2,2021.1.2,Win32,59.85515054,2,7,75,21,1,,,,,
,,shortValid,PODIUM,ASBESTOS,,,,,,RECEIPT,LIMOUSINE,long,resources/sound/trials/audio_stim_comp40.mp3,60fdb169b488e61fd32728d5,33,Male,Right handed,2021-07-26_20h56.04.093,MA Experiment 2,2021.1.2,Win32,59.85515054,2,8,76,19,1,,,,,
1.1916,response_2,shortValid,MUSCLE,MONUMENT,,,,,,SACRED,GALAXY,long,resources/sound/trials/audio_stim_comp1.mp3,60fdb169b488e61fd32728d5,33,Male,Right handed,2021-07-26_20h56.04.093,MA Experiment 2,2021.1.2,Win32,59.85515054,2,9,77,24,1,,,,,
1.9252,response_2,shortFoil,HAMMER,DESTROYER,,,,,,WHISTLE,TREASURER,long,resources/sound/trials/audio_stim_comp12.mp3,60fdb169b488e61fd32728d5,33,Male,Right handed,2021-07-26_20h56.04.093,MA Experiment 2,2021.1.2,Win32,59.85515054,2,10,78,20,1,,,,,
2.3268,response_1,,STATION,INFECTION,,,,,,JUGGLER,DANDELION,long,resources/sound/catchTrials/audio_control_human_project09.mp3,60fdb169b488e61fd32728d5,33,Male,Right handed,2021-07-26_20h56.04.093,MA Experiment 2,2021.1.2,Win32,59.85515054,,,,,,0,20,20,31,1
1.6845,response_1,shortValid,VILLAGE,CABINET,,,,,,PAINTER,VEHICLE,short,resources/sound/trials/audio_stim_human47.mp3,60fdb169b488e61fd32728d5,33,Male,Right handed,2021-07-26_20h56.04.093,MA Experiment 2,2021.1.2,Win32,59.85515054,2,11,79,11,1,,,,,
2.147,response_1,shortFoil,NURSERY,INTERVIEW,,,,,,ATHLETE,IVORY,short,resources/sound/trials/audio_stim_comp57.mp3,60fdb169b488e61fd32728d5,33,Male,Right handed,2021-07-26_20h56.04.093,MA Experiment 2,2021.1.2,Win32,59.85515054,2,12,80,5,1,,,,,
2.6749,response_2,shortValid,MEASLES,GOVERNMENT,,,,,,ROBBER,RATTLESNAKE,long,resources/sound/trials/audio_stim_human64.mp3,60fdb169b488e61fd32728d5,33,Male,Right handed,2021-07-26_20h56.04.093,MA Experiment 2,2021.1.2,Win32,59.85515054,2,13,81,32,1,,,,,
1.8596,response_2,shortValid,DANCER,MECHANIC,,,,,,MINER,EMERALD,short,resources/sound/trials/audio_stim_human6.mp3,60fdb169b488e61fd32728d5,33,Male,Right handed,2021-07-26_20h56.04.093,MA Experiment 2,2021.1.2,Win32,59.85515054,2,14,82,13,1,,,,,
3.3132,response_1,,BUTTER,PROPELLER,,,,,,VIOLET,LUBRICANT,long,resources/sound/catchTrials/audio_control_comp_project07.mp3,60fdb169b488e61fd32728d5,33,Male,Right handed,2021-07-26_20h56.04.093,MA Experiment 2,2021.1.2,Win32,59.85515054,,,,,,0,29,29,19,1
3.4251,response_1,longValid,SEGMENT,CANDLELIGHT,,,,,,SACRED,GALAXY,short,resources/sound/trials/audio_stim_comp1.mp3,60fdb169b488e61fd32728d5,33,Male,Right handed,2021-07-26_20h56.04.093,MA Experiment 2,2021.1.2,Win32,59.85515054,2,15,83,7,1,,,,,
2.0143,response_1,longValid,STOCKING,EMULSION,,,,,,DAYLIGHT,MATERIAL,long,resources/sound/trials/audio_stim_human42.mp3,60fdb169b488e61fd32728d5,33,Male,Right handed,2021-07-26_20h56.04.093,MA Experiment 2,2021.1.2,Win32,59.85515054,2,16,84,26,1,,,,,
3.0255,response_1,longFoil,PERSON,LEMONADE,,,,,,DRIZZLE,CARDINAL,short,resources/sound/trials/audio_stim_comp69.mp3,60fdb169b488e61fd32728d5,33,Male,Right handed,2021-07-26_20h56.04.093,MA Experiment 2,2021.1.2,Win32,59.85515054,2,17,85,0,1,,,,,
1.9418,response_2,longValid,FATHER,PROFESSOR,,,,,,CONCRETE,ENEMY,long,resources/sound/trials/audio_stim_human67.mp3,60fdb169b488e61fd32728d5,33,Male,Right handed,2021-07-26_20h56.04.093,MA Experiment 2,2021.1.2,Win32,59.85515054,2,18,86,27,1,,,,,
2.6541,response_3,,DECOY,MICROSCOPE,,,,,,VIOLET,LUBRICANT,short,resources/sound/catchTrials/audio_control_human_project07.mp3,60fdb169b488e61fd32728d5,33,Male,Right handed,2021-07-26_20h56.04.093,MA Experiment 2,2021.1.2,Win32,59.85515054,,,,,,0,2,2,12,1
2.7417,response_2,longValid,KETTLE,GORILLA,,,,,,CONCRETE,ENEMY,short,resources/sound/trials/audio_stim_human67.mp3,60fdb169b488e61fd32728d5,33,Male,Right handed,2021-07-26_20h56.04.093,MA Experiment 2,2021.1.2,Win32,59.85515054,2,19,87,10,1,,,,,
1.5364,response_2,longFoil,INVOICE,SPECIALIST,,,,,,BRAINSTORM,GREEN NEEDLE,short,resources/sound/trials/audio_stim_original.mp3,60fdb169b488e61fd32728d5,33,Male,Right handed,2021-07-26_20h56.04.093,MA Experiment 2,2021.1.2,Win32,59.85515054,2,20,88,16,1,,,,,
1.7252,response_2,shortValid,CANTEEN,HONEYMOON,,,,,,ROBBER,RATTLESNAKE,short,resources/sound/trials/audio_stim_human64.mp3,60fdb169b488e61fd32728d5,33,Male,Right handed,2021-07-26_20h56.04.093,MA Experiment 2,2021.1.2,Win32,59.85515054,2,21,89,15,1,,,,,
1.71,response_1,longValid,NATIVE,JANITOR,,,,,,MARBLE,CUSTOMER,short,resources/sound/trials/audio_stim_comp65.mp3,60fdb169b488e61fd32728d5,33,Male,Right handed,2021-07-26_20h56.04.093,MA Experiment 2,2021.1.2,Win32,59.85515054,2,22,90,4,1,,,,,
1.6923,response_1,,SADDLE,NEWSPAPER,,,,,,JUGGLER,DANDELION,short,resources/sound/catchTrials/audio_control_human_project09.mp3,60fdb169b488e61fd32728d5,33,Male,Right handed,2021-07-26_20h56.04.093,MA Experiment 2,2021.1.2,Win32,59.85515054,,,,,,0,26,26,15,1
1.9309,response_1,longValid,GRADUATE,FAMILY,,,,,,PAINTER,VEHICLE,long,resources/sound/trials/audio_stim_human47.mp3,60fdb169b488e61fd32728d5,33,Male,Right handed,2021-07-26_20h56.04.093,MA Experiment 2,2021.1.2,Win32,59.85515054,2,23,91,28,1,,,,,
1.7585,response_2,longFoil,VALLEY,HURRICANE,,,,,,PARTY,SANCTUARY,long,resources/sound/trials/audio_stim_human50.mp3,60fdb169b488e61fd32728d5,33,Male,Right handed,2021-07-26_20h56.04.093,MA Experiment 2,2021.1.2,Win32,59.85515054,2,24,92,31,1,,,,,
3.1731,response_1,longValid,KERNEL,FISHERMAN,,,,,,WHISTLE,TREASURER,short,resources/sound/trials/audio_stim_comp12.mp3,60fdb169b488e61fd32728d5,33,Male,Right handed,2021-07-26_20h56.04.093,MA Experiment 2,2021.1.2,Win32,59.85515054,2,25,93,3,1,,,,,
1.442,response_2,longFoil,EARTHWORM,AVENUE,,,,,,MINER,EMERALD,short,resources/sound/trials/audio_stim_comp6.mp3,60fdb169b488e61fd32728d5,33,Male,Right handed,2021-07-26_20h56.04.093,MA Experiment 2,2021.1.2,Win32,59.85515054,2,26,94,1,1,,,,,
2.2413,response_2,,WRITING,MEDICINE,,,,,,NAVY,RECTANGLE,short,resources/sound/catchTrials/audio_control_comp_project06.mp3,60fdb169b488e61fd32728d5,33,Male,Right handed,2021-07-26_20h56.04.093,MA Experiment 2,2021.1.2,Win32,59.85515054,,,,,,0,25,25,6,1
2.5598,response_1,longValid,DUEL,POLICEMAN,,,,,,RUBBER,PROPERTY,short,resources/sound/trials/audio_stim_human0.mp3,60fdb169b488e61fd32728d5,33,Male,Right handed,2021-07-26_20h56.04.093,MA Experiment 2,2021.1.2,Win32,59.85515054,2,27,95,12,1,,,,,
2.2096,response_1,longFoil,LEADER,COMMITTEE,,,,,,WORKER,VISITOR,short,resources/sound/trials/audio_stim_comp17.mp3,60fdb169b488e61fd32728d5,33,Male,Right handed,2021-07-26_20h56.04.093,MA Experiment 2,2021.1.2,Win32,59.85515054,2,28,96,6,1,,,,,
1.124,response_2,longFoil,RUSTY,ALPHABET,,,,,,MINER,EMERALD,long,resources/sound/trials/audio_stim_human6.mp3,60fdb169b488e61fd32728d5,33,Male,Right handed,2021-07-26_20h56.04.093,MA Experiment 2,2021.1.2,Win32,59.85515054,2,29,97,30,1,,,,,
1.7859,response_1,longValid,TWEEZER,DISSECTION,,,,,,RECEIPT,LIMOUSINE,short,resources/sound/trials/audio_stim_comp40.mp3,60fdb169b488e61fd32728d5,33,Male,Right handed,2021-07-26_20h56.04.093,MA Experiment 2,2021.1.2,Win32,59.85515054,2,30,98,2,1,,,,,
0.9479,response_2,,ACRE,MOLECULE,,,,,,CORNER,ENGINEER,long,resources/sound/catchTrials/audio_control_comp_project14.mp3,60fdb169b488e61fd32728d5,33,Male,Right handed,2021-07-26_20h56.04.093,MA Experiment 2,2021.1.2,Win32,59.85515054,,,,,,0,15,15,17,1
1.5084,response_2,shortFoil,NAPKIN,CAPITAL,,,,,,RUBBER,PROPERTY,long,resources/sound/trials/audio_stim_human0.mp3,60fdb169b488e61fd32728d5,33,Male,Right handed,2021-07-26_20h56.04.093,MA Experiment 2,2021.1.2,Win32,59.85515054,2,31,99,29,1,,,,,
1.4893,response_1,longFoil,KENNEL,CINNAMON,,,,,,MINER,EMERALD,long,resources/sound/trials/audio_stim_comp6.mp3,60fdb169b488e61fd32728d5,33,Male,Right handed,2021-07-26_20h56.04.093,MA Experiment 2,2021.1.2,Win32,59.85515054,2,32,100,18,1,,,,,
1.4482,response_2,longValid,LIGHTNING,SAXOPHONE,,,,,,DRIZZLE,CARDINAL,long,resources/sound/trials/audio_stim_comp69.mp3,60fdb169b488e61fd32728d5,33,Male,Right handed,2021-07-26_20h56.04.093,MA Experiment 2,2021.1.2,Win32,59.85515054,2,33,101,17,1,,,,,
1.5741,response_2,shortFoil,BEETLE,OPENING,,,,,,ROBBER,RATTLESNAKE,long,resources/sound/trials/audio_stim_human64.mp3,60fdb169b488e61fd32728d5,33,Male,Right handed,2021-07-26_20h56.04.093,MA Experiment 2,2021.1.2,Win32,59.85515054,3,0,102,32,1,,,,,
1.2661,response_1,shortFoil,OFFICE,UMBRELLA,,,,,,DRIZZLE,CARDINAL,long,resources/sound/trials/audio_stim_comp69.mp3,60fdb169b488e61fd32728d5,33,Male,Right handed,2021-07-26_20h56.04.093,MA Experiment 2,2021.1.2,Win32,59.85515054,3,1,103,17,1,,,,,
1.1405,response_2,longFoil,TUMBLE,ICICLE,,,,,,RUBBER,PROPERTY,short,resources/sound/trials/audio_stim_human0.mp3,60fdb169b488e61fd32728d5,33,Male,Right handed,2021-07-26_20h56.04.093,MA Experiment 2,2021.1.2,Win32,59.85515054,3,2,104,12,1,,,,,
1.8752,response_1,,ANCHOR,POTATO,,,,,,POISON,REVOLVER,long,resources/sound/catchTrials/audio_control_human_project01.mp3,60fdb169b488e61fd32728d5,33,Male,Right handed,2021-07-26_20h56.04.093,MA Experiment 2,2021.1.2,Win32,59.85515054,,,,,,0,19,19,25,1
2.814,response_1,shortValid,MOONLIGHT,APPLIANCE,,,,,,DAYLIGHT,MATERIAL,long,resources/sound/trials/audio_stim_human42.mp3,60fdb169b488e61fd32728d5,33,Male,Right handed,2021-07-26_20h56.04.093,MA Experiment 2,2021.1.2,Win32,59.85515054,3,3,105,26,1,,,,,
1.2385,response_1,shortFoil,WALRUS,ENVELOPE,,,,,,PARTY,SANCTUARY,long,resources/sound/trials/audio_stim_human50.mp3,60fdb169b488e61fd32728d5,33,Male,Right handed,2021-07-26_20h56.04.093,MA Experiment 2,2021.1.2,Win32,59.85515054,3,4,106,31,1,,,,,
1.2648,response_2,longFoil,DWELLER,RETAILER,,,,,,RUBBER,PROPERTY,long,resources/sound/trials/audio_stim_human0.mp3,60fdb169b488e61fd32728d5,33,Male,Right handed,2021-07-26_20h56.04.093,MA Experiment 2,2021.1.2,Win32,59.85515054,3,5,107,29,1,,,,,
3.0567,response_1,longFoil,TORTURE,CITIZEN,,,,,,RECEIPT,LIMOUSINE,long,resources/sound/trials/audio_stim_comp40.mp3,60fdb169b488e61fd32728d5,33,Male,Right handed,2021-07-26_20h56.04.093,MA Experiment 2,2021.1.2,Win32,59.85515054,3,6,108,19,1,,,,,
1.5746,response_2,,POLO,AMMONIA,,,,,,IRIS,VIOLIN,long,resources/sound/catchTrials/audio_control_comp_project12.mp3,60fdb169b488e61fd32728d5,33,Male,Right handed,2021-07-26_20h56.04.093,MA Experiment 2,2021.1.2,Win32,59.85515054,,,,,,0,30,30,20,1
3.2424,response_2,shortValid,FEVER,ACROBAT,,,,,,BRAINSTORM,GREEN NEEDLE,short,resources/sound/trials/audio_stim_original.mp3,60fdb169b488e61fd32728d5,33,Male,Right handed,2021-07-26_20h56.04.093,MA Experiment 2,2021.1.2,Win32,59.85515054,3,7,109,16,1,,,,,
2.1869,response_2,shortValid,WAFER,BEVERAGE,,,,,,MARBLE,CUSTOMER,long,resources/sound/trials/audio_stim_comp65.mp3,60fdb169b488e61fd32728d5,33,Male,Right handed,2021-07-26_20h56.04.093,MA Experiment 2,2021.1.2,Win32,59.85515054,3,8,110,21,1,,,,,
2.959,response_2,shortValid,SHOULDER,CONVENTION,,,,,,BRAINSTORM,GREEN NEEDLE,long,resources/sound/trials/audio_stim_original.mp3,60fdb169b488e61fd32728d5,33,Male,Right handed,2021-07-26_20h56.04.093,MA Experiment 2,2021.1.2,Win32,59.85515054,3,9,111,33,1,,,,,
,,longFoil,NECKLACE,CORRIDOR,,,,,,PAINTER,VEHICLE,short,resources/sound/trials/audio_stim_human47.mp3,60fdb169b488e61fd32728d5,33,Male,Right handed,2021-07-26_20h56.04.093,MA Experiment 2,2021.1.2,Win32,59.85515054,3,10,112,11,1,,,,,
1.3792,response_2,,SOFA,TANGERINE,,,,,,HOBBY,COLONY,short,resources/sound/catchTrials/audio_control_comp_project04.mp3,60fdb169b488e61fd32728d5,33,Male,Right handed,2021-07-26_20h56.04.093,MA Experiment 2,2021.1.2,Win32,59.85515054,,,,,,0,13,13,2,1
1.5259,response_2,longValid,PICTURE,BUTTERFLY,,,,,,SACRED,GALAXY,long,resources/sound/trials/audio_stim_comp1.mp3,60fdb169b488e61fd32728d5,33,Male,Right handed,2021-07-26_20h56.04.093,MA Experiment 2,2021.1.2,Win32,59.85515054,3,11,113,24,1,,,,,
2.2589,response_2,longFoil,HARBOUR,HANDKERCHIEF,,,,,,HARDWARE,OVERCOAT,short,resources/sound/trials/audio_stim_human35.mp3,60fdb169b488e61fd32728d5,33,Male,Right handed,2021-07-26_20h56.04.093,MA Experiment 2,2021.1.2,Win32,59.85515054,3,12,114,8,1,,,,,
2.3936,response_1,longFoil,CRYSTAL,MERCURY,,,,,,CONCRETE,ENEMY,long,resources/sound/trials/audio_stim_human67.mp3,60fdb169b488e61fd32728d5,33,Male,Right handed,2021-07-26_20h56.04.093,MA Experiment 2,2021.1.2,Win32,59.85515054,3,13,115,27,1,,,,,
2.1265,response_1,shortValid,SULPHUR,VINEGAR,,,,,,HARDWARE,OVERCOAT,long,resources/sound/trials/audio_stim_human35.mp3,60fdb169b488e61fd32728d5,33,Male,Right handed,2021-07-26_20h56.04.093,MA Experiment 2,2021.1.2,Win32,59.85515054,3,14,116,25,1,,,,,
1.959,response_2,,CABIN,PHOTOGRAPH,,,,,,CORNER,ENGINEER,short,resources/sound/catchTrials/audio_control_comp_project14.mp3,60fdb169b488e61fd32728d5,33,Male,Right handed,2021-07-26_20h56.04.093,MA Experiment 2,2021.1.2,Win32,59.85515054,,,,,,0,9,9,1,1
3.1901,response_2,longValid,CHIPMUNK,INSTRUCTOR,,,,,,ATHLETE,IVORY,long,resources/sound/trials/audio_stim_comp57.mp3,60fdb169b488e61fd32728d5,33,Male,Right handed,2021-07-26_20h56.04.093,MA Experiment 2,2021.1.2,Win32,59.85515054,3,15,117,22,1,,,,,
2.1925,response_2,shortValid,CURFEW,CARNATION,,,,,,WORKER,VISITOR,short,resources/sound/trials/audio_stim_comp17.mp3,60fdb169b488e61fd32728d5,33,Male,Right handed,2021-07-26_20h56.04.093,MA Experiment 2,2021.1.2,Win32,59.85515054,3,16,118,6,1,,,,,
1.7642,response_1,shortFoil,MURAL,CAMERA,,,,,,MINER,EMERALD,long,resources/sound/trials/audio_stim_human6.mp3,60fdb169b488e61fd32728d5,33,Male,Right handed,2021-07-26_20h56.04.093,MA Experiment 2,2021.1.2,Win32,59.85515054,3,17,119,30,1,,,,,
1.2489,response_1,longValid,LIQUID,ANTIQUE,,,,,,DRIZZLE,CARDINAL,short,resources/sound/trials/audio_stim_comp69.mp3,60fdb169b488e61fd32728d5,33,Male,Right handed,2021-07-26_20h56.04.093,MA Experiment 2,2021.1.2,Win32,59.85515054,3,18,120,0,1,,,,,
1.0251,response_2,,JURY,CATHEDRAL,,,,,,ICY,JITTERBUG,short,resources/sound/catchTrials/audio_control_comp_project08.mp3,60fdb169b488e61fd32728d5,33,Male,Right handed,2021-07-26_20h56.04.093,MA Experiment 2,2021.1.2,Win32,59.85515054,,,,,,0,14,14,7,1
2.4258,response_1,longValid,VAPOUR,POLIO,,,,,,MINER,EMERALD,long,resources/sound/trials/audio_stim_comp6.mp3,60fdb169b488e61fd32728d5,33,Male,Right handed,2021-07-26_20h56.04.093,MA Experiment 2,2021.1.2,Win32,59.85515054,3,19,121,18,1,,,,,
0.592,response_1,shortValid,NOVEL,HEADQUARTERS,,,,,,PAINTER,VEHICLE,long,resources/sound/trials/audio_stim_human47.mp3,60fdb169b488e61fd32728d5,33,Male,Right handed,2021-07-26_20h56.04.093,MA Experiment 2,2021.1.2,Win32,59.85515054,3,20,122,28,1,,,,,
1.548,response_2,longFoil,SINGER,ENAMEL,,,,,,ATHLETE,IVORY,short,resources/sound/trials/audio_stim_comp57.mp3,60fdb169b488e61fd32728d5,33,Male,Right handed,2021-07-26_20h56.04.093,MA Experiment 2,2021.1.2,Win32,59.85515054,3,21,123,5,1,,,,,
1.0707,response_1,longValid,DIVING,CIGARETTE,,,,,,MINER,EMERALD,short,resources/sound/trials/audio_stim_comp6.mp3,60fdb169b488e61fd32728d5,33,Male,Right handed,2021-07-26_20h56.04.093,MA Experiment 2,2021.1.2,Win32,59.85515054,3,22,124,1,1,,,,,
1.7921,response_2,,BURNER,CHOCOLATE,,,,,,HOBBY,COLONY,long,resources/sound/catchTrials/audio_control_comp_project04.mp3,60fdb169b488e61fd32728d5,33,Male,Right handed,2021-07-26_20h56.04.093,MA Experiment 2,2021.1.2,Win32,59.85515054,,,,,,0,7,7,18,1
1.4928,response_2,shortFoil,FOREARM,ALCOHOL,,,,,,ROBBER,RATTLESNAKE,short,resources/sound/trials/audio_stim_human64.mp3,60fdb169b488e61fd32728d5,33,Male,Right handed,2021-07-26_20h56.04.093,MA Experiment 2,2021.1.2,Win32,59.85515054,3,23,125,15,1,,,,,
2.0102,response_2,shortFoil,PRINCESS,ATHLETICS,,,,,,WHISTLE,TREASURER,short,resources/sound/trials/audio_stim_comp12.mp3,60fdb169b488e61fd32728d5,33,Male,Right handed,2021-07-26_20h56.04.093,MA Experiment 2,2021.1.2,Win32,59.85515054,3,24,126,3,1,,,,,
0.66,response_2,shortValid,LOBSTER,NEIGHBOURHOOD,,,,,,CONCRETE,ENEMY,short,resources/sound/trials/audio_stim_human67.mp3,60fdb169b488e61fd32728d5,33,Male,Right handed,2021-07-26_20h56.04.093,MA Experiment 2,2021.1.2,Win32,59.85515054,3,25,127,10,1,,,,,
1.592,response_2,shortFoil,MEDICINE,ATTENDANT,,,,,,MINER,EMERALD,short,resources/sound/trials/audio_stim_human6.mp3,60fdb169b488e61fd32728d5,33,Male,Right handed,2021-07-26_20h56.04.093,MA Experiment 2,2021.1.2,Win32,59.85515054,3,26,128,13,1,,,,,
1.9588,response_2,,SODA,GALLERY,,,,,,JOURNAL,ROBBERY,short,resources/sound/catchTrials/audio_control_human_project02.mp3,60fdb169b488e61fd32728d5,33,Male,Right handed,2021-07-26_20h56.04.093,MA Experiment 2,2021.1.2,Win32,59.85515054,,,,,,0,5,5,13,1
,,longFoil,MISTRESS,MINISTER,,,,,,WHISTLE,TREASURER,long,resources/sound/trials/audio_stim_comp12.mp3,60fdb169b488e61fd32728d5,33,Male,Right handed,2021-07-26_20h56.04.093,MA Experiment 2,2021.1.2,Win32,59.85515054,3,27,129,20,1,,,,,
1.4743,response_1,shortValid,CEREAL,GYMNASTICS,,,,,,SACRED,GALAXY,short,resources/sound/trials/audio_stim_comp1.mp3,60fdb169b488e61fd32728d5,33,Male,Right handed,2021-07-26_20h56.04.093,MA Experiment 2,2021.1.2,Win32,59.85515054,3,28,130,7,1,,,,,
1.8594,response_1,shortFoil,RABBI,INSTRUMENT,,,,,,DAYLIGHT,MATERIAL,short,resources/sound/trials/audio_stim_human42.mp3,60fdb169b488e61fd32728d5,33,Male,Right handed,2021-07-26_20h56.04.093,MA Experiment 2,2021.1.2,Win32,59.85515054,3,29,131,9,1,,,,,
1.7251,response_1,longValid,FERTILE,HOSPITAL,,,,,,PARTY,SANCTUARY,short,resources/sound/trials/audio_stim_human50.mp3,60fdb169b488e61fd32728d5,33,Male,Right handed,2021-07-26_20h56.04.093,MA Experiment 2,2021.1.2,Win32,59.85515054,3,30,132,14,1,,,,,
1.7595,response_2,,BISHOP,ORNAMENT,,,,,,BORDER,ALGEBRA,short,resources/sound/catchTrials/audio_control_comp_project00.mp3,60fdb169b488e61fd32728d5,33,Male,Right handed,2021-07-26_20h56.04.093,MA Experiment 2,2021.1.2,Win32,59.85515054,,,,,,0,27,27,0,1
1.7255,response_2,shortValid,BERRY,FACTORY,,,,,,WORKER,VISITOR,long,resources/sound/trials/audio_stim_comp17.mp3,60fdb169b488e61fd32728d5,33,Male,Right handed,2021-07-26_20h56.04.093,MA Experiment 2,2021.1.2,Win32,59.85515054,3,31,133,23,1,,,,,
2.9424,response_1,shortValid,SCOOTER,OXYGEN,,,,,,RECEIPT,LIMOUSINE,short,resources/sound/trials/audio_stim_comp40.mp3,60fdb169b488e61fd32728d5,33,Male,Right handed,2021-07-26_20h56.04.093,MA Experiment 2,2021.1.2,Win32,59.85515054,3,32,134,2,1,,,,,
1.9092,response_2,longFoil,FAIRY,INJURY,,,,,,MARBLE,CUSTOMER,short,resources/sound/trials/audio_stim_comp65.mp3,60fdb169b488e61fd32728d5,33,Male,Right handed,2021-07-26_20h56.04.093,MA Experiment 2,2021.1.2,Win32,59.85515054,3,33,135,4,1,,,,,
