response.time,response,cueTarget,rand_foil_1,rand_foil_2,prac_trials.thisRepN,prac_trials.thisTrialN,prac_trials.thisN,prac_trials.thisIndex,prac_trials.ran,word_1,word_2,cue,file_path,participant,age,gender,handedness,date,expName,psychopyVersion,OS,frameRate,trials.thisRepN,trials.thisTrialN,trials.thisN,trials.thisIndex,trials.ran,catchTrials.thisRepN,catchTrials.thisTrialN,catchTrials.thisN,catchTrials.thisIndex,catchTrials.ran
2.5486,response_2,longValid,MURAL,CANDLELIGHT,0,0,0,2,1,RECENT,TOBACCO,short,resources/sound/prac_trials/practice_cue2.mp3,60fd40bd85bdc921c8044099,30,Female,Right handed,2021-07-26_21h21.17.281,MA Experiment 2,2021.1.2,Win32,60.0132029,,,,,,,,,,
3.0225,response_1,longValid,KENNEL,HOSPITAL,0,1,1,7,1,BUCKLE,WALLABY,long,resources/sound/prac_trials/practice_cue_human7.mp3,60fd40bd85bdc921c8044099,30,Female,Right handed,2021-07-26_21h21.17.281,MA Experiment 2,2021.1.2,Win32,60.0132029,,,,,,,,,,
2.1967,response_1,longFoil,NATIVE,POTATO,0,2,2,10,1,SAFFRON,JAVELIN,long,resources/sound/prac_trials/practice_cue10.mp3,60fd40bd85bdc921c8044099,30,Female,Right handed,2021-07-26_21h21.17.281,MA Experiment 2,2021.1.2,Win32,60.0132029,,,,,,,,,,
1.7581,response_2,shortValid,WINDOW,REFEREE,0,3,3,6,1,VACANT,SALVATION,long,resources/sound/prac_trials/practice_cue6.mp3,60fd40bd85bdc921c8044099,30,Female,Right handed,2021-07-26_21h21.17.281,MA Experiment 2,2021.1.2,Win32,60.0132029,,,,,,,,,,
1.1789,response_2,longValid,CRYSTAL,MESSENGER,0,4,4,5,1,NONSENSE,OASIS,short,resources/sound/prac_trials/practice_cue_human5.mp3,60fd40bd85bdc921c8044099,30,Female,Right handed,2021-07-26_21h21.17.281,MA Experiment 2,2021.1.2,Win32,60.0132029,,,,,,,,,,
1.9143,response_1,longValid,STATION,CAPITAL,0,5,5,11,1,KETCHUP,GONDOLA,long,resources/sound/prac_trials/practice_cue_human11.mp3,60fd40bd85bdc921c8044099,30,Female,Right handed,2021-07-26_21h21.17.281,MA Experiment 2,2021.1.2,Win32,60.0132029,,,,,,,,,,
1.4085,response_2,longFoil,WAFER,EMULSION,0,6,6,9,1,GRUMPY,LABYRINTH,long,resources/sound/prac_trials/practice_cue_human9.mp3,60fd40bd85bdc921c8044099,30,Female,Right handed,2021-07-26_21h21.17.281,MA Experiment 2,2021.1.2,Win32,60.0132029,,,,,,,,,,
2.4255,response_2,shortValid,DOORWAY,CLARINET,0,7,7,1,1,CABLE,REPUBLIC,short,resources/sound/prac_trials/practice_cue_human1.mp3,60fd40bd85bdc921c8044099,30,Female,Right handed,2021-07-26_21h21.17.281,MA Experiment 2,2021.1.2,Win32,60.0132029,,,,,,,,,,
1.3975,response_1,shortValid,INCOME,NEWSPAPER,0,8,8,0,1,AARDVARK,FALLACY,short,resources/sound/prac_trials/practice_cue0.mp3,60fd40bd85bdc921c8044099,30,Female,Right handed,2021-07-26_21h21.17.281,MA Experiment 2,2021.1.2,Win32,60.0132029,,,,,,,,,,
1.8463,response_2,shortFoil,RABBI,UMBRELLA,0,9,9,8,1,DAGGER,EMPHASIS,long,resources/sound/prac_trials/practice_cue8.mp3,60fd40bd85bdc921c8044099,30,Female,Right handed,2021-07-26_21h21.17.281,MA Experiment 2,2021.1.2,Win32,60.0132029,,,,,,,,,,
2.3734,response_2,longValid,TEMPLE,POLIO,0,10,10,4,1,FIZZY,ELECTRIC,short,resources/sound/prac_trials/practice_cue4.mp3,60fd40bd85bdc921c8044099,30,Female,Right handed,2021-07-26_21h21.17.281,MA Experiment 2,2021.1.2,Win32,60.0132029,,,,,,,,,,
1.928,response_2,shortFoil,FATHER,HEROIN,0,11,11,3,1,EAGER,QUALIFY,short,resources/sound/prac_trials/practice_cue_human3.mp3,60fd40bd85bdc921c8044099,30,Female,Right handed,2021-07-26_21h21.17.281,MA Experiment 2,2021.1.2,Win32,60.0132029,,,,,,,,,,
2.5293,response_1,shortValid,PRINCESS,DESTROYER,,,,,,ROBBER,RATTLESNAKE,short,resources/sound/trials/audio_stim_human64.mp3,60fd40bd85bdc921c8044099,30,Female,Right handed,2021-07-26_21h21.17.281,MA Experiment 2,2021.1.2,Win32,60.0132029,0,0,0,15,1,,,,,
1.4262,response_1,shortValid,BISHOP,LEMONADE,,,,,,ATHLETE,IVORY,short,resources/sound/trials/audio_stim_comp57.mp3,60fd40bd85bdc921c8044099,30,Female,Right handed,2021-07-26_21h21.17.281,MA Experiment 2,2021.1.2,Win32,60.0132029,0,1,1,5,1,,,,,
1.5804,response_2,longFoil,DANCER,PHYSICIAN,,,,,,RECEIPT,LIMOUSINE,short,resources/sound/trials/audio_stim_comp40.mp3,60fd40bd85bdc921c8044099,30,Female,Right handed,2021-07-26_21h21.17.281,MA Experiment 2,2021.1.2,Win32,60.0132029,0,2,2,2,1,,,,,
1.5955,response_2,,SULPHUR,MOLECULE,,,,,,CORNER,ENGINEER,long,resources/sound/catchTrials/audio_control_comp_project14.mp3,60fd40bd85bdc921c8044099,30,Female,Right handed,2021-07-26_21h21.17.281,MA Experiment 2,2021.1.2,Win32,60.0132029,,,,,,0,24,24,17,1
2.0679,response_1,shortFoil,PIANO,CITIZEN,,,,,,DRIZZLE,CARDINAL,short,resources/sound/trials/audio_stim_comp69.mp3,60fd40bd85bdc921c8044099,30,Female,Right handed,2021-07-26_21h21.17.281,MA Experiment 2,2021.1.2,Win32,60.0132029,0,3,3,0,1,,,,,
1.9438,response_2,longFoil,MEDICINE,FAMILY,,,,,,RUBBER,PROPERTY,short,resources/sound/trials/audio_stim_human0.mp3,60fd40bd85bdc921c8044099,30,Female,Right handed,2021-07-26_21h21.17.281,MA Experiment 2,2021.1.2,Win32,60.0132029,0,4,4,12,1,,,,,
2.1138,response_2,longValid,TORTURE,GORILLA,,,,,,CONCRETE,ENEMY,short,resources/sound/trials/audio_stim_human67.mp3,60fd40bd85bdc921c8044099,30,Female,Right handed,2021-07-26_21h21.17.281,MA Experiment 2,2021.1.2,Win32,60.0132029,0,5,5,10,1,,,,,
1.8859,response_2,longValid,EARTHWORM,MEDICINE,,,,,,ROBBER,RATTLESNAKE,long,resources/sound/trials/audio_stim_human64.mp3,60fd40bd85bdc921c8044099,30,Female,Right handed,2021-07-26_21h21.17.281,MA Experiment 2,2021.1.2,Win32,60.0132029,0,6,6,32,1,,,,,
0.7265,response_2,,NEIGHBOUR,GYMNASTICS,,,,,,CORNER,ENGINEER,short,resources/sound/catchTrials/audio_control_human_project14.mp3,60fd40bd85bdc921c8044099,30,Female,Right handed,2021-07-26_21h21.17.281,MA Experiment 2,2021.1.2,Win32,60.0132029,,,,,,0,22,22,10,1
1.613,response_2,longValid,VESSEL,APPLIANCE,,,,,,MINER,EMERALD,short,resources/sound/trials/audio_stim_human6.mp3,60fd40bd85bdc921c8044099,30,Female,Right handed,2021-07-26_21h21.17.281,MA Experiment 2,2021.1.2,Win32,60.0132029,0,7,7,13,1,,,,,
2.1973,response_2,longValid,CAPTAIN,ALPHABET,,,,,,BRAINSTORM,GREEN NEEDLE,short,resources/sound/trials/audio_stim_original.mp3,60fd40bd85bdc921c8044099,30,Female,Right handed,2021-07-26_21h21.17.281,MA Experiment 2,2021.1.2,Win32,60.0132029,0,8,8,16,1,,,,,
1.6134,response_2,shortValid,POLO,AMBULANCE,,,,,,RUBBER,PROPERTY,long,resources/sound/trials/audio_stim_human0.mp3,60fd40bd85bdc921c8044099,30,Female,Right handed,2021-07-26_21h21.17.281,MA Experiment 2,2021.1.2,Win32,60.0132029,0,9,9,29,1,,,,,
1.563,response_1,longValid,PERSON,OPENING,,,,,,PAINTER,VEHICLE,long,resources/sound/trials/audio_stim_human47.mp3,60fd40bd85bdc921c8044099,30,Female,Right handed,2021-07-26_21h21.17.281,MA Experiment 2,2021.1.2,Win32,60.0132029,0,10,10,28,1,,,,,
1.8965,response_2,,HAMSTER,NEIGHBOURHOOD,,,,,,NAVY,RECTANGLE,short,resources/sound/catchTrials/audio_control_comp_project06.mp3,60fd40bd85bdc921c8044099,30,Female,Right handed,2021-07-26_21h21.17.281,MA Experiment 2,2021.1.2,Win32,60.0132029,,,,,,0,11,11,6,1
1.9299,response_1,shortValid,STOCKING,PHOTOGRAPH,,,,,,PARTY,SANCTUARY,short,resources/sound/trials/audio_stim_human50.mp3,60fd40bd85bdc921c8044099,30,Female,Right handed,2021-07-26_21h21.17.281,MA Experiment 2,2021.1.2,Win32,60.0132029,0,11,11,14,1,,,,,
1.6424,response_1,longFoil,VAPOUR,TEMPERATURE,,,,,,CONCRETE,ENEMY,long,resources/sound/trials/audio_stim_human67.mp3,60fd40bd85bdc921c8044099,30,Female,Right handed,2021-07-26_21h21.17.281,MA Experiment 2,2021.1.2,Win32,60.0132029,0,12,12,27,1,,,,,
2.1459,response_3,longFoil,HAMMER,CONVENTION,,,,,,MINER,EMERALD,short,resources/sound/trials/audio_stim_comp6.mp3,60fd40bd85bdc921c8044099,30,Female,Right handed,2021-07-26_21h21.17.281,MA Experiment 2,2021.1.2,Win32,60.0132029,0,13,13,1,1,,,,,
2.5565,response_1,longValid,GIRDLE,FIREWOOD,,,,,,DRIZZLE,CARDINAL,long,resources/sound/trials/audio_stim_comp69.mp3,60fd40bd85bdc921c8044099,30,Female,Right handed,2021-07-26_21h21.17.281,MA Experiment 2,2021.1.2,Win32,60.0132029,0,14,14,17,1,,,,,
1.2455,response_2,,WRITING,MERCURY,,,,,,NAVY,RECTANGLE,short,resources/sound/catchTrials/audio_control_human_project06.mp3,60fd40bd85bdc921c8044099,30,Female,Right handed,2021-07-26_21h21.17.281,MA Experiment 2,2021.1.2,Win32,60.0132029,,,,,,0,7,7,14,1
1.6302,response_2,shortValid,NAPKIN,BEVERAGE,,,,,,DAYLIGHT,MATERIAL,short,resources/sound/trials/audio_stim_human42.mp3,60fd40bd85bdc921c8044099,30,Female,Right handed,2021-07-26_21h21.17.281,MA Experiment 2,2021.1.2,Win32,60.0132029,0,15,15,9,1,,,,,
2.1151,response_2,longValid,MISTRESS,ATHLETICS,,,,,,WORKER,VISITOR,long,resources/sound/trials/audio_stim_comp17.mp3,60fd40bd85bdc921c8044099,30,Female,Right handed,2021-07-26_21h21.17.281,MA Experiment 2,2021.1.2,Win32,60.0132029,0,16,16,23,1,,,,,
1.567,response_2,shortFoil,MURDER,GALLERY,,,,,,MINER,EMERALD,long,resources/sound/trials/audio_stim_human6.mp3,60fd40bd85bdc921c8044099,30,Female,Right handed,2021-07-26_21h21.17.281,MA Experiment 2,2021.1.2,Win32,60.0132029,0,17,17,30,1,,,,,
2.1619,response_1,shortFoil,DECOY,BUTTERFLY,,,,,,MARBLE,CUSTOMER,long,resources/sound/trials/audio_stim_comp65.mp3,60fd40bd85bdc921c8044099,30,Female,Right handed,2021-07-26_21h21.17.281,MA Experiment 2,2021.1.2,Win32,60.0132029,0,18,18,21,1,,,,,
2.0813,response_1,,CEREAL,INFECTION,,,,,,JUGGLER,DANDELION,short,resources/sound/catchTrials/audio_control_human_project09.mp3,60fd40bd85bdc921c8044099,30,Female,Right handed,2021-07-26_21h21.17.281,MA Experiment 2,2021.1.2,Win32,60.0132029,,,,,,0,28,28,15,1
1.3457,response_2,longFoil,NECKLACE,FISHERMAN,,,,,,PARTY,SANCTUARY,long,resources/sound/trials/audio_stim_human50.mp3,60fd40bd85bdc921c8044099,30,Female,Right handed,2021-07-26_21h21.17.281,MA Experiment 2,2021.1.2,Win32,60.0132029,0,19,19,31,1,,,,,
1.7782,response_1,shortFoil,GRADUATE,CORRIDOR,,,,,,DAYLIGHT,MATERIAL,long,resources/sound/trials/audio_stim_human42.mp3,60fd40bd85bdc921c8044099,30,Female,Right handed,2021-07-26_21h21.17.281,MA Experiment 2,2021.1.2,Win32,60.0132029,0,20,20,26,1,,,,,
0.8255,response_2,longValid,SOFA,INSTITUTE,,,,,,RECEIPT,LIMOUSINE,long,resources/sound/trials/audio_stim_comp40.mp3,60fd40bd85bdc921c8044099,30,Female,Right handed,2021-07-26_21h21.17.281,MA Experiment 2,2021.1.2,Win32,60.0132029,0,21,21,19,1,,,,,
0.7488,response_1,shortValid,BUTTER,ADMIRAL,,,,,,WORKER,VISITOR,short,resources/sound/trials/audio_stim_comp17.mp3,60fd40bd85bdc921c8044099,30,Female,Right handed,2021-07-26_21h21.17.281,MA Experiment 2,2021.1.2,Win32,60.0132029,0,22,22,6,1,,,,,
1.9292,response_2,,FOREARM,ORNAMENT,,,,,,HOBBY,COLONY,long,resources/sound/catchTrials/audio_control_comp_project04.mp3,60fd40bd85bdc921c8044099,30,Female,Right handed,2021-07-26_21h21.17.281,MA Experiment 2,2021.1.2,Win32,60.0132029,,,,,,0,0,0,18,1
1.5956,response_2,shortFoil,MEASLES,MOSQUITO,,,,,,MINER,EMERALD,long,resources/sound/trials/audio_stim_comp6.mp3,60fd40bd85bdc921c8044099,30,Female,Right handed,2021-07-26_21h21.17.281,MA Experiment 2,2021.1.2,Win32,60.0132029,0,23,23,18,1,,,,,
1.312,response_2,longValid,ANCHOR,ICICLE,,,,,,HARDWARE,OVERCOAT,long,resources/sound/trials/audio_stim_human35.mp3,60fd40bd85bdc921c8044099,30,Female,Right handed,2021-07-26_21h21.17.281,MA Experiment 2,2021.1.2,Win32,60.0132029,0,24,24,25,1,,,,,
1.3964,response_2,longFoil,LOBSTER,GINGERBREAD,,,,,,BRAINSTORM,GREEN NEEDLE,long,resources/sound/trials/audio_stim_original.mp3,60fd40bd85bdc921c8044099,30,Female,Right handed,2021-07-26_21h21.17.281,MA Experiment 2,2021.1.2,Win32,60.0132029,0,25,25,33,1,,,,,
1.6827,response_1,longValid,HURDLE,TANGERINE,,,,,,ATHLETE,IVORY,long,resources/sound/trials/audio_stim_comp57.mp3,60fd40bd85bdc921c8044099,30,Female,Right handed,2021-07-26_21h21.17.281,MA Experiment 2,2021.1.2,Win32,60.0132029,0,26,26,22,1,,,,,
2.7197,response_2,,MORNING,COMMITTEE,,,,,,IRIS,VIOLIN,short,resources/sound/catchTrials/audio_control_comp_project12.mp3,60fd40bd85bdc921c8044099,30,Female,Right handed,2021-07-26_21h21.17.281,MA Experiment 2,2021.1.2,Win32,60.0132029,,,,,,0,18,18,4,1
2.1764,response_1,longValid,VILLAGE,CATHEDRAL,,,,,,WHISTLE,TREASURER,long,resources/sound/trials/audio_stim_comp12.mp3,60fd40bd85bdc921c8044099,30,Female,Right handed,2021-07-26_21h21.17.281,MA Experiment 2,2021.1.2,Win32,60.0132029,0,27,27,20,1,,,,,
1.3785,response_2,longFoil,FEVER,ALCOHOL,,,,,,HARDWARE,OVERCOAT,short,resources/sound/trials/audio_stim_human35.mp3,60fd40bd85bdc921c8044099,30,Female,Right handed,2021-07-26_21h21.17.281,MA Experiment 2,2021.1.2,Win32,60.0132029,0,28,28,8,1,,,,,
3.0629,response_2,longFoil,DUEL,AVENUE,,,,,,WHISTLE,TREASURER,short,resources/sound/trials/audio_stim_comp12.mp3,60fd40bd85bdc921c8044099,30,Female,Right handed,2021-07-26_21h21.17.281,MA Experiment 2,2021.1.2,Win32,60.0132029,0,29,29,3,1,,,,,
2.607,response_2,shortFoil,DWELLER,INDUSTRY,,,,,,SACRED,GALAXY,long,resources/sound/trials/audio_stim_comp1.mp3,60fd40bd85bdc921c8044099,30,Female,Right handed,2021-07-26_21h21.17.281,MA Experiment 2,2021.1.2,Win32,60.0132029,0,30,30,24,1,,,,,
,,,FERTILE,CARNATION,,,,,,JOURNAL,ROBBERY,short,resources/sound/catchTrials/audio_control_human_project02.mp3,60fd40bd85bdc921c8044099,30,Female,Right handed,2021-07-26_21h21.17.281,MA Experiment 2,2021.1.2,Win32,60.0132029,,,,,,0,27,27,13,1
2.0801,response_2,shortFoil,KETTLE,HANDKERCHIEF,,,,,,SACRED,GALAXY,short,resources/sound/trials/audio_stim_comp1.mp3,60fd40bd85bdc921c8044099,30,Female,Right handed,2021-07-26_21h21.17.281,MA Experiment 2,2021.1.2,Win32,60.0132029,0,31,31,7,1,,,,,
2.3937,response_2,shortFoil,PODIUM,SPECIALIST,,,,,,MARBLE,CUSTOMER,short,resources/sound/trials/audio_stim_comp65.mp3,60fd40bd85bdc921c8044099,30,Female,Right handed,2021-07-26_21h21.17.281,MA Experiment 2,2021.1.2,Win32,60.0132029,0,32,32,4,1,,,,,
2.2132,response_1,shortValid,CABIN,ENVELOPE,,,,,,PAINTER,VEHICLE,short,resources/sound/trials/audio_stim_human47.mp3,60fd40bd85bdc921c8044099,30,Female,Right handed,2021-07-26_21h21.17.281,MA Experiment 2,2021.1.2,Win32,60.0132029,0,33,33,11,1,,,,,
1.529,response_2,longValid,SODA,LECTURER,,,,,,MINER,EMERALD,long,resources/sound/trials/audio_stim_comp6.mp3,60fd40bd85bdc921c8044099,30,Female,Right handed,2021-07-26_21h21.17.281,MA Experiment 2,2021.1.2,Win32,60.0132029,1,0,34,18,1,,,,,
1.6952,response_2,longFoil,TUMBLE,CIGARETTE,,,,,,DAYLIGHT,MATERIAL,long,resources/sound/trials/audio_stim_human42.mp3,60fd40bd85bdc921c8044099,30,Female,Right handed,2021-07-26_21h21.17.281,MA Experiment 2,2021.1.2,Win32,60.0132029,1,1,35,26,1,,,,,
1.5598,response_1,shortFoil,OFFICE,STRAWBERRY,,,,,,ATHLETE,IVORY,short,resources/sound/trials/audio_stim_comp57.mp3,60fd40bd85bdc921c8044099,30,Female,Right handed,2021-07-26_21h21.17.281,MA Experiment 2,2021.1.2,Win32,60.0132029,1,2,36,5,1,,,,,
1.9581,response_1,,JURY,INJURY,,,,,,VIOLET,LUBRICANT,long,resources/sound/catchTrials/audio_control_human_project07.mp3,60fd40bd85bdc921c8044099,30,Female,Right handed,2021-07-26_21h21.17.281,MA Experiment 2,2021.1.2,Win32,60.0132029,,,,,,0,6,6,28,1
1.5789,response_2,shortValid,PIPING,VINEGAR,,,,,,MINER,EMERALD,short,resources/sound/trials/audio_stim_human6.mp3,60fd40bd85bdc921c8044099,30,Female,Right handed,2021-07-26_21h21.17.281,MA Experiment 2,2021.1.2,Win32,60.0132029,1,3,37,13,1,,,,,
1.8621,response_1,shortValid,NURSERY,AMMONIA,,,,,,MARBLE,CUSTOMER,long,resources/sound/trials/audio_stim_comp65.mp3,60fd40bd85bdc921c8044099,30,Female,Right handed,2021-07-26_21h21.17.281,MA Experiment 2,2021.1.2,Win32,60.0132029,1,4,38,21,1,,,,,
1.4963,response_2,longValid,DIVING,MICROSCOPE,,,,,,WORKER,VISITOR,short,resources/sound/trials/audio_stim_comp17.mp3,60fd40bd85bdc921c8044099,30,Female,Right handed,2021-07-26_21h21.17.281,MA Experiment 2,2021.1.2,Win32,60.0132029,1,5,39,6,1,,,,,
1.5794,response_2,shortFoil,CURFEW,ATTENDANT,,,,,,PARTY,SANCTUARY,long,resources/sound/trials/audio_stim_human50.mp3,60fd40bd85bdc921c8044099,30,Female,Right handed,2021-07-26_21h21.17.281,MA Experiment 2,2021.1.2,Win32,60.0132029,1,6,40,31,1,,,,,
2.4321,response_1,,BURNER,ENAMEL,,,,,,JUGGLER,DANDELION,long,resources/sound/catchTrials/audio_control_human_project09.mp3,60fd40bd85bdc921c8044099,30,Female,Right handed,2021-07-26_21h21.17.281,MA Experiment 2,2021.1.2,Win32,60.0132029,,,,,,0,16,16,31,1
2.2982,response_2,longValid,KERNEL,PROJECTOR,,,,,,SACRED,GALAXY,long,resources/sound/trials/audio_stim_comp1.mp3,60fd40bd85bdc921c8044099,30,Female,Right handed,2021-07-26_21h21.17.281,MA Experiment 2,2021.1.2,Win32,60.0132029,1,7,41,24,1,,,,,
2.1468,response_2,longFoil,SINGER,JANITOR,,,,,,DAYLIGHT,MATERIAL,short,resources/sound/trials/audio_stim_human42.mp3,60fd40bd85bdc921c8044099,30,Female,Right handed,2021-07-26_21h21.17.281,MA Experiment 2,2021.1.2,Win32,60.0132029,1,8,42,9,1,,,,,
1.2578,response_1,longValid,TRAITOR,DISSECTION,,,,,,MARBLE,CUSTOMER,short,resources/sound/trials/audio_stim_comp65.mp3,60fd40bd85bdc921c8044099,30,Female,Right handed,2021-07-26_21h21.17.281,MA Experiment 2,2021.1.2,Win32,60.0132029,1,9,43,4,1,,,,,
2.8955,response_2,shortValid,EVENING,ANTIQUE,,,,,,DRIZZLE,CARDINAL,long,resources/sound/trials/audio_stim_comp69.mp3,60fd40bd85bdc921c8044099,30,Female,Right handed,2021-07-26_21h21.17.281,MA Experiment 2,2021.1.2,Win32,60.0132029,1,10,44,17,1,,,,,
2.2105,response_1,,SHOULDER,ASBESTOS,,,,,,VIOLET,LUBRICANT,short,resources/sound/catchTrials/audio_control_comp_project07.mp3,60fd40bd85bdc921c8044099,30,Female,Right handed,2021-07-26_21h21.17.281,MA Experiment 2,2021.1.2,Win32,60.0132029,,,,,,0,26,26,3,1
1.8629,response_1,shortFoil,VALLEY,DIAMOND,,,,,,CONCRETE,ENEMY,long,resources/sound/trials/audio_stim_human67.mp3,60fd40bd85bdc921c8044099,30,Female,Right handed,2021-07-26_21h21.17.281,MA Experiment 2,2021.1.2,Win32,60.0132029,1,11,45,27,1,,,,,
1.2968,response_2,longFoil,SCOOTER,CABINET,,,,,,MINER,EMERALD,long,resources/sound/trials/audio_stim_human6.mp3,60fd40bd85bdc921c8044099,30,Female,Right handed,2021-07-26_21h21.17.281,MA Experiment 2,2021.1.2,Win32,60.0132029,1,12,46,30,1,,,,,
1.6653,response_2,shortValid,ACRE,CHOCOLATE,,,,,,MINER,EMERALD,short,resources/sound/trials/audio_stim_comp6.mp3,60fd40bd85bdc921c8044099,30,Female,Right handed,2021-07-26_21h21.17.281,MA Experiment 2,2021.1.2,Win32,60.0132029,1,13,47,1,1,,,,,
2.2645,response_1,longFoil,WALRUS,HEADQUARTERS,,,,,,PAINTER,VEHICLE,long,resources/sound/trials/audio_stim_human47.mp3,60fd40bd85bdc921c8044099,30,Female,Right handed,2021-07-26_21h21.17.281,MA Experiment 2,2021.1.2,Win32,60.0132029,1,14,48,28,1,,,,,
1.5967,response_2,,FAIRY,GRASSHOPPER,,,,,,ICY,JITTERBUG,short,resources/sound/catchTrials/audio_control_comp_project08.mp3,60fd40bd85bdc921c8044099,30,Female,Right handed,2021-07-26_21h21.17.281,MA Experiment 2,2021.1.2,Win32,60.0132029,,,,,,0,2,2,7,1
1.5269,response_1,longValid,UNCLE,INTERVIEW,,,,,,PAINTER,VEHICLE,short,resources/sound/trials/audio_stim_human47.mp3,60fd40bd85bdc921c8044099,30,Female,Right handed,2021-07-26_21h21.17.281,MA Experiment 2,2021.1.2,Win32,60.0132029,1,15,49,11,1,,,,,
3.5633,response_1,shortFoil,LIGHTNING,HONEYMOON,,,,,,WHISTLE,TREASURER,short,resources/sound/trials/audio_stim_comp12.mp3,60fd40bd85bdc921c8044099,30,Female,Right handed,2021-07-26_21h21.17.281,MA Experiment 2,2021.1.2,Win32,60.0132029,1,16,50,3,1,,,,,
1.3465,response_2,longValid,HARBOUR,MECHANIC,,,,,,ROBBER,RATTLESNAKE,short,resources/sound/trials/audio_stim_human64.mp3,60fd40bd85bdc921c8044099,30,Female,Right handed,2021-07-26_21h21.17.281,MA Experiment 2,2021.1.2,Win32,60.0132029,1,17,51,15,1,,,,,
1.4984,response_2,longFoil,SHEEPSKIN,CINNAMON,,,,,,BRAINSTORM,GREEN NEEDLE,short,resources/sound/trials/audio_stim_original.mp3,60fd40bd85bdc921c8044099,30,Female,Right handed,2021-07-26_21h21.17.281,MA Experiment 2,2021.1.2,Win32,60.0132029,1,18,52,16,1,,,,,
1.8609,response_2,,PATIENT,ABDOMEN,,,,,,HOBBY,COLONY,short,resources/sound/catchTrials/audio_control_comp_project04.mp3,60fd40bd85bdc921c8044099,30,Female,Right handed,2021-07-26_21h21.17.281,MA Experiment 2,2021.1.2,Win32,60.0132029,,,,,,0,8,8,2,1
1.8294,response_1,shortValid,DIAL,ACROBAT,,,,,,WORKER,VISITOR,long,resources/sound/trials/audio_stim_comp17.mp3,60fd40bd85bdc921c8044099,30,Female,Right handed,2021-07-26_21h21.17.281,MA Experiment 2,2021.1.2,Win32,60.0132029,1,19,53,23,1,,,,,
1.2962,response_2,shortFoil,LEADER,SAXOPHONE,,,,,,PARTY,SANCTUARY,short,resources/sound/trials/audio_stim_human50.mp3,60fd40bd85bdc921c8044099,30,Female,Right handed,2021-07-26_21h21.17.281,MA Experiment 2,2021.1.2,Win32,60.0132029,1,20,54,14,1,,,,,
2.0648,response_2,shortValid,CANTEEN,MONUMENT,,,,,,RUBBER,PROPERTY,short,resources/sound/trials/audio_stim_human0.mp3,60fd40bd85bdc921c8044099,30,Female,Right handed,2021-07-26_21h21.17.281,MA Experiment 2,2021.1.2,Win32,60.0132029,1,21,55,12,1,,,,,
1.3425,response_2,shortFoil,INVOICE,RETAILER,,,,,,HARDWARE,OVERCOAT,long,resources/sound/trials/audio_stim_human35.mp3,60fd40bd85bdc921c8044099,30,Female,Right handed,2021-07-26_21h21.17.281,MA Experiment 2,2021.1.2,Win32,60.0132029,1,22,56,25,1,,,,,
1.5809,response_2,,BERRY,INSTRUMENT,,,,,,BORDER,ALGEBRA,long,resources/sound/catchTrials/audio_control_comp_project00.mp3,60fd40bd85bdc921c8044099,30,Female,Right handed,2021-07-26_21h21.17.281,MA Experiment 2,2021.1.2,Win32,60.0132029,,,,,,0,9,9,16,1
1.398,response_2,longValid,LIQUID,MINISTER,,,,,,HARDWARE,OVERCOAT,short,resources/sound/trials/audio_stim_human35.mp3,60fd40bd85bdc921c8044099,30,Female,Right handed,2021-07-26_21h21.17.281,MA Experiment 2,2021.1.2,Win32,60.0132029,1,23,57,8,1,,,,,
2.9155,response_2,shortFoil,NOVEL,INSTRUCTOR,,,,,,RECEIPT,LIMOUSINE,short,resources/sound/trials/audio_stim_comp40.mp3,60fd40bd85bdc921c8044099,30,Female,Right handed,2021-07-26_21h21.17.281,MA Experiment 2,2021.1.2,Win32,60.0132029,1,24,58,2,1,,,,,
1.9552,response_2,shortFoil,BEETLE,CROCODILE,,,,,,ROBBER,RATTLESNAKE,long,resources/sound/trials/audio_stim_human64.mp3,60fd40bd85bdc921c8044099,30,Female,Right handed,2021-07-26_21h21.17.281,MA Experiment 2,2021.1.2,Win32,60.0132029,1,25,59,32,1,,,,,
1.7565,response_2,shortFoil,PICTURE,GOVERNMENT,,,,,,RECEIPT,LIMOUSINE,long,resources/sound/trials/audio_stim_comp40.mp3,60fd40bd85bdc921c8044099,30,Female,Right handed,2021-07-26_21h21.17.281,MA Experiment 2,2021.1.2,Win32,60.0132029,1,26,60,19,1,,,,,
2.1418,response_2,,MOONLIGHT,PROPELLER,,,,,,IRIS,VIOLIN,long,resources/sound/catchTrials/audio_control_human_project12.mp3,60fd40bd85bdc921c8044099,30,Female,Right handed,2021-07-26_21h21.17.281,MA Experiment 2,2021.1.2,Win32,60.0132029,,,,,,0,13,13,24,1
2.4634,response_1,longFoil,SEGMENT,PROFESSOR,,,,,,CONCRETE,ENEMY,short,resources/sound/trials/audio_stim_human67.mp3,60fd40bd85bdc921c8044099,30,Female,Right handed,2021-07-26_21h21.17.281,MA Experiment 2,2021.1.2,Win32,60.0132029,1,27,61,10,1,,,,,
1.8979,response_2,shortFoil,WIRE,SETTLEMENT,,,,,,RUBBER,PROPERTY,long,resources/sound/trials/audio_stim_human0.mp3,60fd40bd85bdc921c8044099,30,Female,Right handed,2021-07-26_21h21.17.281,MA Experiment 2,2021.1.2,Win32,60.0132029,1,28,62,29,1,,,,,
1.7324,response_3,shortFoil,MUSCLE,FACTORY,,,,,,WHISTLE,TREASURER,long,resources/sound/trials/audio_stim_comp12.mp3,60fd40bd85bdc921c8044099,30,Female,Right handed,2021-07-26_21h21.17.281,MA Experiment 2,2021.1.2,Win32,60.0132029,1,29,63,20,1,,,,,
3.5446,response_2,longValid,CIGAR,MINERAL,,,,,,SACRED,GALAXY,short,resources/sound/trials/audio_stim_comp1.mp3,60fd40bd85bdc921c8044099,30,Female,Right handed,2021-07-26_21h21.17.281,MA Experiment 2,2021.1.2,Win32,60.0132029,1,30,64,7,1,,,,,
1.515,response_2,,CHIPMUNK,OXYGEN,,,,,,HOBBY,COLONY,short,resources/sound/catchTrials/audio_control_human_project04.mp3,60fd40bd85bdc921c8044099,30,Female,Right handed,2021-07-26_21h21.17.281,MA Experiment 2,2021.1.2,Win32,60.0132029,,,,,,0,17,17,11,1
1.365,response_1,shortValid,OLIVE,POLICEMAN,,,,,,DRIZZLE,CARDINAL,short,resources/sound/trials/audio_stim_comp69.mp3,60fd40bd85bdc921c8044099,30,Female,Right handed,2021-07-26_21h21.17.281,MA Experiment 2,2021.1.2,Win32,60.0132029,1,31,65,0,1,,,,,
2.0606,response_1,shortFoil,RUSTY,HURRICANE,,,,,,ATHLETE,IVORY,long,resources/sound/trials/audio_stim_comp57.mp3,60fd40bd85bdc921c8044099,30,Female,Right handed,2021-07-26_21h21.17.281,MA Experiment 2,2021.1.2,Win32,60.0132029,1,32,66,22,1,,,,,
2.0415,response_2,shortFoil,SADDLE,CAMERA,,,,,,BRAINSTORM,GREEN NEEDLE,long,resources/sound/trials/audio_stim_original.mp3,60fd40bd85bdc921c8044099,30,Female,Right handed,2021-07-26_21h21.17.281,MA Experiment 2,2021.1.2,Win32,60.0132029,1,33,67,33,1,,,,,
,,longFoil,TWEEZER,FURNITURE,,,,,,SACRED,GALAXY,long,resources/sound/trials/audio_stim_comp1.mp3,60fd40bd85bdc921c8044099,30,Female,Right handed,2021-07-26_21h21.17.281,MA Experiment 2,2021.1.2,Win32,60.0132029,2,0,68,24,1,,,,,
1.864,response_2,shortFoil,STATION,SETTLEMENT,,,,,,WORKER,VISITOR,long,resources/sound/trials/audio_stim_comp17.mp3,60fd40bd85bdc921c8044099,30,Female,Right handed,2021-07-26_21h21.17.281,MA Experiment 2,2021.1.2,Win32,60.0132029,2,1,69,23,1,,,,,
1.5792,response_2,shortValid,SADDLE,OPENING,,,,,,CONCRETE,ENEMY,short,resources/sound/trials/audio_stim_human67.mp3,60fd40bd85bdc921c8044099,30,Female,Right handed,2021-07-26_21h21.17.281,MA Experiment 2,2021.1.2,Win32,60.0132029,2,2,70,10,1,,,,,
1.3258,response_2,,DANCER,AMMONIA,,,,,,SPINACH,APRICOT,short,resources/sound/catchTrials/audio_control_comp_project18.mp3,60fd40bd85bdc921c8044099,30,Female,Right handed,2021-07-26_21h21.17.281,MA Experiment 2,2021.1.2,Win32,60.0132029,,,,,,0,1,1,5,1
1.1767,response_1,longFoil,CANTEEN,CITIZEN,,,,,,ATHLETE,IVORY,short,resources/sound/trials/audio_stim_comp57.mp3,60fd40bd85bdc921c8044099,30,Female,Right handed,2021-07-26_21h21.17.281,MA Experiment 2,2021.1.2,Win32,60.0132029,2,3,71,5,1,,,,,
1.2106,response_2,longValid,HAMMER,TANGERINE,,,,,,PARTY,SANCTUARY,long,resources/sound/trials/audio_stim_human50.mp3,60fd40bd85bdc921c8044099,30,Female,Right handed,2021-07-26_21h21.17.281,MA Experiment 2,2021.1.2,Win32,60.0132029,2,4,72,31,1,,,,,
1.6288,response_2,shortFoil,NAPKIN,CINNAMON,,,,,,MINER,EMERALD,short,resources/sound/trials/audio_stim_human6.mp3,60fd40bd85bdc921c8044099,30,Female,Right handed,2021-07-26_21h21.17.281,MA Experiment 2,2021.1.2,Win32,60.0132029,2,5,73,13,1,,,,,
1.459,response_2,shortFoil,DIVING,STRAWBERRY,,,,,,RUBBER,PROPERTY,short,resources/sound/trials/audio_stim_human0.mp3,60fd40bd85bdc921c8044099,30,Female,Right handed,2021-07-26_21h21.17.281,MA Experiment 2,2021.1.2,Win32,60.0132029,2,6,74,12,1,,,,,
1.8588,response_2,,LEADER,ENVELOPE,,,,,,IRIS,VIOLIN,long,resources/sound/catchTrials/audio_control_comp_project12.mp3,60fd40bd85bdc921c8044099,30,Female,Right handed,2021-07-26_21h21.17.281,MA Experiment 2,2021.1.2,Win32,60.0132029,,,,,,0,29,29,20,1
1.375,response_1,longFoil,TWEEZER,CONVENTION,,,,,,ATHLETE,IVORY,long,resources/sound/trials/audio_stim_comp57.mp3,60fd40bd85bdc921c8044099,30,Female,Right handed,2021-07-26_21h21.17.281,MA Experiment 2,2021.1.2,Win32,60.0132029,2,7,75,22,1,,,,,
1.5915,response_1,shortFoil,TEMPLE,FISHERMAN,,,,,,PAINTER,VEHICLE,short,resources/sound/trials/audio_stim_human47.mp3,60fd40bd85bdc921c8044099,30,Female,Right handed,2021-07-26_21h21.17.281,MA Experiment 2,2021.1.2,Win32,60.0132029,2,8,76,11,1,,,,,
1.6592,response_2,longValid,PODIUM,HOSPITAL,,,,,,MINER,EMERALD,short,resources/sound/trials/audio_stim_comp6.mp3,60fd40bd85bdc921c8044099,30,Female,Right handed,2021-07-26_21h21.17.281,MA Experiment 2,2021.1.2,Win32,60.0132029,2,9,77,1,1,,,,,
1.5797,response_2,shortFoil,JURY,MEDICINE,,,,,,BRAINSTORM,GREEN NEEDLE,short,resources/sound/trials/audio_stim_original.mp3,60fd40bd85bdc921c8044099,30,Female,Right handed,2021-07-26_21h21.17.281,MA Experiment 2,2021.1.2,Win32,60.0132029,2,10,78,16,1,,,,,
1.6805,response_2,,FOREARM,GOVERNMENT,,,,,,NAVY,RECTANGLE,long,resources/sound/catchTrials/audio_control_comp_project06.mp3,60fd40bd85bdc921c8044099,30,Female,Right handed,2021-07-26_21h21.17.281,MA Experiment 2,2021.1.2,Win32,60.0132029,,,,,,0,30,30,22,1
1.9286,response_2,shortValid,SCOOTER,EMULSION,,,,,,CONCRETE,ENEMY,long,resources/sound/trials/audio_stim_human67.mp3,60fd40bd85bdc921c8044099,30,Female,Right handed,2021-07-26_21h21.17.281,MA Experiment 2,2021.1.2,Win32,60.0132029,2,11,79,27,1,,,,,
1.8273,response_1,shortFoil,UNCLE,ATHLETICS,,,,,,PAINTER,VEHICLE,long,resources/sound/trials/audio_stim_human47.mp3,60fd40bd85bdc921c8044099,30,Female,Right handed,2021-07-26_21h21.17.281,MA Experiment 2,2021.1.2,Win32,60.0132029,2,12,80,28,1,,,,,
2.0935,response_2,longFoil,VAPOUR,FAMILY,,,,,,MARBLE,CUSTOMER,long,resources/sound/trials/audio_stim_comp65.mp3,60fd40bd85bdc921c8044099,30,Female,Right handed,2021-07-26_21h21.17.281,MA Experiment 2,2021.1.2,Win32,60.0132029,2,13,81,21,1,,,,,
1.2977,response_2,longFoil,SHEEPSKIN,CLARINET,,,,,,ROBBER,RATTLESNAKE,long,resources/sound/trials/audio_stim_human64.mp3,60fd40bd85bdc921c8044099,30,Female,Right handed,2021-07-26_21h21.17.281,MA Experiment 2,2021.1.2,Win32,60.0132029,2,14,82,32,1,,,,,
1.3987,response_2,,PICTURE,INSTRUCTOR,,,,,,CORNER,ENGINEER,short,resources/sound/catchTrials/audio_control_comp_project14.mp3,60fd40bd85bdc921c8044099,30,Female,Right handed,2021-07-26_21h21.17.281,MA Experiment 2,2021.1.2,Win32,60.0132029,,,,,,0,31,31,1,1
1.5628,response_2,longValid,MURAL,LECTURER,,,,,,RECEIPT,LIMOUSINE,short,resources/sound/trials/audio_stim_comp40.mp3,60fd40bd85bdc921c8044099,30,Female,Right handed,2021-07-26_21h21.17.281,MA Experiment 2,2021.1.2,Win32,60.0132029,2,15,83,2,1,,,,,
1.3923,response_2,longValid,CURFEW,ORNAMENT,,,,,,DAYLIGHT,MATERIAL,short,resources/sound/trials/audio_stim_human42.mp3,60fd40bd85bdc921c8044099,30,Female,Right handed,2021-07-26_21h21.17.281,MA Experiment 2,2021.1.2,Win32,60.0132029,2,16,84,9,1,,,,,
1.325,response_2,shortFoil,WAFER,BEVERAGE,,,,,,HARDWARE,OVERCOAT,short,resources/sound/trials/audio_stim_human35.mp3,60fd40bd85bdc921c8044099,30,Female,Right handed,2021-07-26_21h21.17.281,MA Experiment 2,2021.1.2,Win32,60.0132029,2,17,85,8,1,,,,,
1.4768,response_2,shortValid,NECKLACE,INJURY,,,,,,MINER,EMERALD,long,resources/sound/trials/audio_stim_comp6.mp3,60fd40bd85bdc921c8044099,30,Female,Right handed,2021-07-26_21h21.17.281,MA Experiment 2,2021.1.2,Win32,60.0132029,2,18,86,18,1,,,,,
1.5155,response_2,,TUMBLE,NEWSPAPER,,,,,,SPINACH,APRICOT,long,resources/sound/catchTrials/audio_control_comp_project18.mp3,60fd40bd85bdc921c8044099,30,Female,Right handed,2021-07-26_21h21.17.281,MA Experiment 2,2021.1.2,Win32,60.0132029,,,,,,0,12,12,21,1
2.1431,response_2,longFoil,NOVEL,INSTITUTE,,,,,,SACRED,GALAXY,short,resources/sound/trials/audio_stim_comp1.mp3,60fd40bd85bdc921c8044099,30,Female,Right handed,2021-07-26_21h21.17.281,MA Experiment 2,2021.1.2,Win32,60.0132029,2,19,87,7,1,,,,,
1.6419,response_2,longFoil,DIAL,GALLERY,,,,,,WORKER,VISITOR,short,resources/sound/trials/audio_stim_comp17.mp3,60fd40bd85bdc921c8044099,30,Female,Right handed,2021-07-26_21h21.17.281,MA Experiment 2,2021.1.2,Win32,60.0132029,2,20,88,6,1,,,,,
1.2625,response_2,longValid,WIRE,ALCOHOL,,,,,,RUBBER,PROPERTY,long,resources/sound/trials/audio_stim_human0.mp3,60fd40bd85bdc921c8044099,30,Female,Right handed,2021-07-26_21h21.17.281,MA Experiment 2,2021.1.2,Win32,60.0132029,2,21,89,29,1,,,,,
2.2601,response_1,longValid,PIPING,CARNATION,,,,,,WHISTLE,TREASURER,short,resources/sound/trials/audio_stim_comp12.mp3,60fd40bd85bdc921c8044099,30,Female,Right handed,2021-07-26_21h21.17.281,MA Experiment 2,2021.1.2,Win32,60.0132029,2,22,90,3,1,,,,,
1.5095,response_2,,MEDICINE,RETAILER,,,,,,HOBBY,COLONY,long,resources/sound/catchTrials/audio_control_human_project04.mp3,60fd40bd85bdc921c8044099,30,Female,Right handed,2021-07-26_21h21.17.281,MA Experiment 2,2021.1.2,Win32,60.0132029,,,,,,0,19,19,27,1
1.2987,response_2,longFoil,SHOULDER,VINEGAR,,,,,,PARTY,SANCTUARY,short,resources/sound/trials/audio_stim_human50.mp3,60fd40bd85bdc921c8044099,30,Female,Right handed,2021-07-26_21h21.17.281,MA Experiment 2,2021.1.2,Win32,60.0132029,2,23,91,14,1,,,,,
1.4945,response_2,longFoil,BURNER,CANDLELIGHT,,,,,,ROBBER,RATTLESNAKE,short,resources/sound/trials/audio_stim_human64.mp3,60fd40bd85bdc921c8044099,30,Female,Right handed,2021-07-26_21h21.17.281,MA Experiment 2,2021.1.2,Win32,60.0132029,2,24,92,15,1,,,,,
1.8101,response_2,shortValid,KETTLE,PHOTOGRAPH,,,,,,RECEIPT,LIMOUSINE,long,resources/sound/trials/audio_stim_comp40.mp3,60fd40bd85bdc921c8044099,30,Female,Right handed,2021-07-26_21h21.17.281,MA Experiment 2,2021.1.2,Win32,60.0132029,2,25,93,19,1,,,,,
1.5924,response_1,longFoil,SULPHUR,BUTTERFLY,,,,,,MARBLE,CUSTOMER,short,resources/sound/trials/audio_stim_comp65.mp3,60fd40bd85bdc921c8044099,30,Female,Right handed,2021-07-26_21h21.17.281,MA Experiment 2,2021.1.2,Win32,60.0132029,2,26,94,4,1,,,,,
2.2108,response_1,,LOBSTER,GRASSHOPPER,,,,,,POISON,REVOLVER,long,resources/sound/catchTrials/audio_control_human_project01.mp3,60fd40bd85bdc921c8044099,30,Female,Right handed,2021-07-26_21h21.17.281,MA Experiment 2,2021.1.2,Win32,60.0132029,,,,,,0,15,15,25,1
1.7658,response_1,longValid,OLIVE,REFEREE,,,,,,DAYLIGHT,MATERIAL,long,resources/sound/trials/audio_stim_human42.mp3,60fd40bd85bdc921c8044099,30,Female,Right handed,2021-07-26_21h21.17.281,MA Experiment 2,2021.1.2,Win32,60.0132029,2,27,95,26,1,,,,,
1.6617,response_2,shortValid,FERTILE,FURNITURE,,,,,,HARDWARE,OVERCOAT,long,resources/sound/trials/audio_stim_human35.mp3,60fd40bd85bdc921c8044099,30,Female,Right handed,2021-07-26_21h21.17.281,MA Experiment 2,2021.1.2,Win32,60.0132029,2,28,96,25,1,,,,,
1.5966,response_2,longValid,ANCHOR,GINGERBREAD,,,,,,BRAINSTORM,GREEN NEEDLE,long,resources/sound/trials/audio_stim_original.mp3,60fd40bd85bdc921c8044099,30,Female,Right handed,2021-07-26_21h21.17.281,MA Experiment 2,2021.1.2,Win32,60.0132029,2,29,97,33,1,,,,,
2.4947,response_2,shortFoil,SINGER,POLICEMAN,,,,,,DRIZZLE,CARDINAL,long,resources/sound/trials/audio_stim_comp69.mp3,60fd40bd85bdc921c8044099,30,Female,Right handed,2021-07-26_21h21.17.281,MA Experiment 2,2021.1.2,Win32,60.0132029,2,30,98,17,1,,,,,
1.1968,response_1,,BISHOP,CATHEDRAL,,,,,,VIOLET,LUBRICANT,short,resources/sound/catchTrials/audio_control_human_project07.mp3,60fd40bd85bdc921c8044099,30,Female,Right handed,2021-07-26_21h21.17.281,MA Experiment 2,2021.1.2,Win32,60.0132029,,,,,,0,14,14,12,1
1.7137,response_1,shortValid,SEGMENT,HEADQUARTERS,,,,,,WHISTLE,TREASURER,long,resources/sound/trials/audio_stim_comp12.mp3,60fd40bd85bdc921c8044099,30,Female,Right handed,2021-07-26_21h21.17.281,MA Experiment 2,2021.1.2,Win32,60.0132029,2,31,99,20,1,,,,,
1.7333,response_2,longFoil,BERRY,MINERAL,,,,,,DRIZZLE,CARDINAL,short,resources/sound/trials/audio_stim_comp69.mp3,60fd40bd85bdc921c8044099,30,Female,Right handed,2021-07-26_21h21.17.281,MA Experiment 2,2021.1.2,Win32,60.0132029,2,32,100,0,1,,,,,
1.6299,response_2,shortValid,WALRUS,CABINET,,,,,,MINER,EMERALD,long,resources/sound/trials/audio_stim_human6.mp3,60fd40bd85bdc921c8044099,30,Female,Right handed,2021-07-26_21h21.17.281,MA Experiment 2,2021.1.2,Win32,60.0132029,2,33,101,30,1,,,,,
1.6484,response_2,longValid,WINDOW,DISSECTION,,,,,,DRIZZLE,CARDINAL,short,resources/sound/trials/audio_stim_comp69.mp3,60fd40bd85bdc921c8044099,30,Female,Right handed,2021-07-26_21h21.17.281,MA Experiment 2,2021.1.2,Win32,60.0132029,3,0,102,0,1,,,,,
1.5088,response_2,shortFoil,LIGHTNING,POTATO,,,,,,ROBBER,RATTLESNAKE,short,resources/sound/trials/audio_stim_human64.mp3,60fd40bd85bdc921c8044099,30,Female,Right handed,2021-07-26_21h21.17.281,MA Experiment 2,2021.1.2,Win32,60.0132029,3,1,103,15,1,,,,,
1.9305,response_1,shortValid,GIRDLE,HEROIN,,,,,,ATHLETE,IVORY,long,resources/sound/trials/audio_stim_comp57.mp3,60fd40bd85bdc921c8044099,30,Female,Right handed,2021-07-26_21h21.17.281,MA Experiment 2,2021.1.2,Win32,60.0132029,3,2,104,22,1,,,,,
2.1046,response_1,,RUSTY,ICICLE,,,,,,VIOLET,LUBRICANT,long,resources/sound/catchTrials/audio_control_comp_project07.mp3,60fd40bd85bdc921c8044099,30,Female,Right handed,2021-07-26_21h21.17.281,MA Experiment 2,2021.1.2,Win32,60.0132029,,,,,,0,10,10,19,1
1.5609,response_2,shortValid,DOORWAY,ALPHABET,,,,,,PARTY,SANCTUARY,long,resources/sound/trials/audio_stim_human50.mp3,60fd40bd85bdc921c8044099,30,Female,Right handed,2021-07-26_21h21.17.281,MA Experiment 2,2021.1.2,Win32,60.0132029,3,3,105,31,1,,,,,
1.5923,response_1,shortValid,VILLAGE,JANITOR,,,,,,MARBLE,CUSTOMER,short,resources/sound/trials/audio_stim_comp65.mp3,60fd40bd85bdc921c8044099,30,Female,Right handed,2021-07-26_21h21.17.281,MA Experiment 2,2021.1.2,Win32,60.0132029,3,4,106,4,1,,,,,
2.943,response_1,longFoil,NATIVE,APPLIANCE,,,,,,WHISTLE,TREASURER,long,resources/sound/trials/audio_stim_comp12.mp3,60fd40bd85bdc921c8044099,30,Female,Right handed,2021-07-26_21h21.17.281,MA Experiment 2,2021.1.2,Win32,60.0132029,3,5,107,20,1,,,,,
1.695,response_2,shortFoil,DUEL,MICROSCOPE,,,,,,MINER,EMERALD,short,resources/sound/trials/audio_stim_comp6.mp3,60fd40bd85bdc921c8044099,30,Female,Right handed,2021-07-26_21h21.17.281,MA Experiment 2,2021.1.2,Win32,60.0132029,3,6,108,1,1,,,,,
1.3779,response_2,,CAPTAIN,AVENUE,,,,,,CORNER,ENGINEER,long,resources/sound/catchTrials/audio_control_human_project14.mp3,60fd40bd85bdc921c8044099,30,Female,Right handed,2021-07-26_21h21.17.281,MA Experiment 2,2021.1.2,Win32,60.0132029,,,,,,0,21,21,26,1
1.4786,response_2,longFoil,WRITING,CAMERA,,,,,,RECEIPT,LIMOUSINE,long,resources/sound/trials/audio_stim_comp40.mp3,60fd40bd85bdc921c8044099,30,Female,Right handed,2021-07-26_21h21.17.281,MA Experiment 2,2021.1.2,Win32,60.0132029,3,7,109,19,1,,,,,
1.4756,response_2,longFoil,PIANO,CORRIDOR,,,,,,MINER,EMERALD,short,resources/sound/trials/audio_stim_human6.mp3,60fd40bd85bdc921c8044099,30,Female,Right handed,2021-07-26_21h21.17.281,MA Experiment 2,2021.1.2,Win32,60.0132029,3,8,110,13,1,,,,,
1.4818,response_2,shortValid,PERSON,FIREWOOD,,,,,,BRAINSTORM,GREEN NEEDLE,long,resources/sound/trials/audio_stim_original.mp3,60fd40bd85bdc921c8044099,30,Female,Right handed,2021-07-26_21h21.17.281,MA Experiment 2,2021.1.2,Win32,60.0132029,3,9,111,33,1,,,,,
1.9641,response_2,shortFoil,SOFA,ADMIRAL,,,,,,WORKER,VISITOR,short,resources/sound/trials/audio_stim_comp17.mp3,60fd40bd85bdc921c8044099,30,Female,Right handed,2021-07-26_21h21.17.281,MA Experiment 2,2021.1.2,Win32,60.0132029,3,10,112,6,1,,,,,
1.5083,response_2,,PATIENT,MECHANIC,,,,,,NAVY,RECTANGLE,long,resources/sound/catchTrials/audio_control_human_project06.mp3,60fd40bd85bdc921c8044099,30,Female,Right handed,2021-07-26_21h21.17.281,MA Experiment 2,2021.1.2,Win32,60.0132029,,,,,,0,4,4,30,1
2.1762,response_1,shortFoil,KERNEL,MINISTER,,,,,,CONCRETE,ENEMY,short,resources/sound/trials/audio_stim_human67.mp3,60fd40bd85bdc921c8044099,30,Female,Right handed,2021-07-26_21h21.17.281,MA Experiment 2,2021.1.2,Win32,60.0132029,3,11,113,10,1,,,,,
1.5377,response_1,shortValid,MUSCLE,MESSENGER,,,,,,PAINTER,VEHICLE,long,resources/sound/trials/audio_stim_human47.mp3,60fd40bd85bdc921c8044099,30,Female,Right handed,2021-07-26_21h21.17.281,MA Experiment 2,2021.1.2,Win32,60.0132029,3,12,114,28,1,,,,,
1.9134,response_1,shortValid,MURDER,INSTRUMENT,,,,,,DAYLIGHT,MATERIAL,long,resources/sound/trials/audio_stim_human42.mp3,60fd40bd85bdc921c8044099,30,Female,Right handed,2021-07-26_21h21.17.281,MA Experiment 2,2021.1.2,Win32,60.0132029,3,13,115,26,1,,,,,
1.7192,response_1,longValid,NEIGHBOUR,NEIGHBOURHOOD,,,,,,ATHLETE,IVORY,short,resources/sound/trials/audio_stim_comp57.mp3,60fd40bd85bdc921c8044099,30,Female,Right handed,2021-07-26_21h21.17.281,MA Experiment 2,2021.1.2,Win32,60.0132029,3,14,116,5,1,,,,,
1.4232,response_2,,TRAITOR,ACROBAT,,,,,,IRIS,VIOLIN,short,resources/sound/catchTrials/audio_control_human_project12.mp3,60fd40bd85bdc921c8044099,30,Female,Right handed,2021-07-26_21h21.17.281,MA Experiment 2,2021.1.2,Win32,60.0132029,,,,,,0,3,3,8,1
1.596,response_2,longValid,SODA,INDUSTRY,,,,,,PARTY,SANCTUARY,short,resources/sound/trials/audio_stim_human50.mp3,60fd40bd85bdc921c8044099,30,Female,Right handed,2021-07-26_21h21.17.281,MA Experiment 2,2021.1.2,Win32,60.0132029,3,15,117,14,1,,,,,
1.6928,response_2,longFoil,DECOY,SAXOPHONE,,,,,,WORKER,VISITOR,long,resources/sound/trials/audio_stim_comp17.mp3,60fd40bd85bdc921c8044099,30,Female,Right handed,2021-07-26_21h21.17.281,MA Experiment 2,2021.1.2,Win32,60.0132029,3,16,118,23,1,,,,,
1.293,response_2,longFoil,INCOME,CAPITAL,,,,,,HARDWARE,OVERCOAT,long,resources/sound/trials/audio_stim_human35.mp3,60fd40bd85bdc921c8044099,30,Female,Right handed,2021-07-26_21h21.17.281,MA Experiment 2,2021.1.2,Win32,60.0132029,3,17,119,25,1,,,,,
1.6763,response_2,shortValid,BUTTER,ENAMEL,,,,,,ROBBER,RATTLESNAKE,long,resources/sound/trials/audio_stim_human64.mp3,60fd40bd85bdc921c8044099,30,Female,Right handed,2021-07-26_21h21.17.281,MA Experiment 2,2021.1.2,Win32,60.0132029,3,18,120,32,1,,,,,
1.6472,response_1,,ACRE,DIAMOND,,,,,,POISON,REVOLVER,short,resources/sound/catchTrials/audio_control_human_project01.mp3,60fd40bd85bdc921c8044099,30,Female,Right handed,2021-07-26_21h21.17.281,MA Experiment 2,2021.1.2,Win32,60.0132029,,,,,,0,20,20,9,1
1.7305,response_1,shortValid,INVOICE,TEMPERATURE,,,,,,SACRED,GALAXY,short,resources/sound/trials/audio_stim_comp1.mp3,60fd40bd85bdc921c8044099,30,Female,Right handed,2021-07-26_21h21.17.281,MA Experiment 2,2021.1.2,Win32,60.0132029,3,19,121,7,1,,,,,
1.3136,response_1,longValid,EARTHWORM,INTERVIEW,,,,,,CONCRETE,ENEMY,long,resources/sound/trials/audio_stim_human67.mp3,60fd40bd85bdc921c8044099,30,Female,Right handed,2021-07-26_21h21.17.281,MA Experiment 2,2021.1.2,Win32,60.0132029,3,20,122,27,1,,,,,
1.3305,response_2,longValid,OFFICE,HONEYMOON,,,,,,RUBBER,PROPERTY,short,resources/sound/trials/audio_stim_human0.mp3,60fd40bd85bdc921c8044099,30,Female,Right handed,2021-07-26_21h21.17.281,MA Experiment 2,2021.1.2,Win32,60.0132029,3,21,123,12,1,,,,,
1.0606,response_2,longFoil,CEREAL,ANTIQUE,,,,,,MINER,EMERALD,long,resources/sound/trials/audio_stim_comp6.mp3,60fd40bd85bdc921c8044099,30,Female,Right handed,2021-07-26_21h21.17.281,MA Experiment 2,2021.1.2,Win32,60.0132029,3,22,124,18,1,,,,,
1.923,response_2,,HAMSTER,HANDKERCHIEF,,,,,,BORDER,ALGEBRA,short,resources/sound/catchTrials/audio_control_comp_project00.mp3,60fd40bd85bdc921c8044099,30,Female,Right handed,2021-07-26_21h21.17.281,MA Experiment 2,2021.1.2,Win32,60.0132029,,,,,,0,25,25,0,1
2.3142,response_2,shortValid,HARBOUR,LEMONADE,,,,,,RECEIPT,LIMOUSINE,short,resources/sound/trials/audio_stim_comp40.mp3,60fd40bd85bdc921c8044099,30,Female,Right handed,2021-07-26_21h21.17.281,MA Experiment 2,2021.1.2,Win32,60.0132029,3,23,125,2,1,,,,,
1.7629,response_1,longValid,EVENING,CROCODILE,,,,,,MARBLE,CUSTOMER,long,resources/sound/trials/audio_stim_comp65.mp3,60fd40bd85bdc921c8044099,30,Female,Right handed,2021-07-26_21h21.17.281,MA Experiment 2,2021.1.2,Win32,60.0132029,3,24,126,21,1,,,,,
1.7307,response_1,longFoil,POLO,AMBULANCE,,,,,,PAINTER,VEHICLE,short,resources/sound/trials/audio_stim_human47.mp3,60fd40bd85bdc921c8044099,30,Female,Right handed,2021-07-26_21h21.17.281,MA Experiment 2,2021.1.2,Win32,60.0132029,3,25,127,11,1,,,,,
1.9109,response_1,shortValid,STOCKING,DESTROYER,,,,,,SACRED,GALAXY,long,resources/sound/trials/audio_stim_comp1.mp3,60fd40bd85bdc921c8044099,30,Female,Right handed,2021-07-26_21h21.17.281,MA Experiment 2,2021.1.2,Win32,60.0132029,3,26,128,24,1,,,,,
1.1466,response_2,,RABBI,PHYSICIAN,,,,,,ICY,JITTERBUG,long,resources/sound/catchTrials/audio_control_comp_project08.mp3,60fd40bd85bdc921c8044099,30,Female,Right handed,2021-07-26_21h21.17.281,MA Experiment 2,2021.1.2,Win32,60.0132029,,,,,,0,23,23,23,1
1.5118,response_1,shortFoil,MORNING,PROPELLER,,,,,,DAYLIGHT,MATERIAL,short,resources/sound/trials/audio_stim_human42.mp3,60fd40bd85bdc921c8044099,30,Female,Right handed,2021-07-26_21h21.17.281,MA Experiment 2,2021.1.2,Win32,60.0132029,3,27,129,9,1,,,,,
1.7249,response_2,shortValid,CHIPMUNK,CIGARETTE,,,,,,BRAINSTORM,GREEN NEEDLE,short,resources/sound/trials/audio_stim_original.mp3,60fd40bd85bdc921c8044099,30,Female,Right handed,2021-07-26_21h21.17.281,MA Experiment 2,2021.1.2,Win32,60.0132029,3,28,130,16,1,,,,,
1.961,response_2,longFoil,LIQUID,MERCURY,,,,,,DRIZZLE,CARDINAL,long,resources/sound/trials/audio_stim_comp69.mp3,60fd40bd85bdc921c8044099,30,Female,Right handed,2021-07-26_21h21.17.281,MA Experiment 2,2021.1.2,Win32,60.0132029,3,29,131,17,1,,,,,
1.3697,response_2,longFoil,DWELLER,HURRICANE,,,,,,RUBBER,PROPERTY,long,resources/sound/trials/audio_stim_human0.mp3,60fd40bd85bdc921c8044099,30,Female,Right handed,2021-07-26_21h21.17.281,MA Experiment 2,2021.1.2,Win32,60.0132029,3,30,132,29,1,,,,,
1.9476,response_2,,VESSEL,OXYGEN,,,,,,JOURNAL,ROBBERY,long,resources/sound/catchTrials/audio_control_human_project02.mp3,60fd40bd85bdc921c8044099,30,Female,Right handed,2021-07-26_21h21.17.281,MA Experiment 2,2021.1.2,Win32,60.0132029,,,,,,0,5,5,29,1
1.8459,response_2,longValid,KENNEL,ASBESTOS,,,,,,MINER,EMERALD,long,resources/sound/trials/audio_stim_human6.mp3,60fd40bd85bdc921c8044099,30,Female,Right handed,2021-07-26_21h21.17.281,MA Experiment 2,2021.1.2,Win32,60.0132029,3,31,133,30,1,,,,,
2.4112,response_1,shortValid,PRINCESS,GYMNASTICS,,,,,,WHISTLE,TREASURER,short,resources/sound/trials/audio_stim_comp12.mp3,60fd40bd85bdc921c8044099,30,Female,Right handed,2021-07-26_21h21.17.281,MA Experiment 2,2021.1.2,Win32,60.0132029,3,32,134,3,1,,,,,
1.5651,response_2,shortValid,TORTURE,POLIO,,,,,,HARDWARE,OVERCOAT,short,resources/sound/trials/audio_stim_human35.mp3,60fd40bd85bdc921c8044099,30,Female,Right handed,2021-07-26_21h21.17.281,MA Experiment 2,2021.1.2,Win32,60.0132029,3,33,135,8,1,,,,,
