response.time,response,cueTarget,rand_foil_1,rand_foil_2,prac_trials.thisRepN,prac_trials.thisTrialN,prac_trials.thisN,prac_trials.thisIndex,prac_trials.ran,word_1,word_2,cue,file_path,participant,age,gender,handedness,date,expName,psychopyVersion,OS,frameRate,trials.thisRepN,trials.thisTrialN,trials.thisN,trials.thisIndex,trials.ran,catchTrials.thisRepN,catchTrials.thisTrialN,catchTrials.thisN,catchTrials.thisIndex,catchTrials.ran
,,shortFoil,PRINCESS,HONEYMOON,0,0,0,5,1,NONSENSE,OASIS,short,resources/sound/prac_trials/practice_cue_human5.mp3,60fd9f7caf1a4931e2ea3c15,19,Female,Right handed,2021-07-26_21h11.55.340,MA Experiment 2,2021.1.2,Win32,60.05645307,,,,,,,,,,
2.575,response_2,longValid,MISTRESS,OXYGEN,0,1,1,2,1,RECENT,TOBACCO,short,resources/sound/prac_trials/practice_cue2.mp3,60fd9f7caf1a4931e2ea3c15,19,Female,Right handed,2021-07-26_21h11.55.340,MA Experiment 2,2021.1.2,Win32,60.05645307,,,,,,,,,,
,,shortValid,TUMBLE,MERCURY,0,2,2,1,1,CABLE,REPUBLIC,short,resources/sound/prac_trials/practice_cue_human1.mp3,60fd9f7caf1a4931e2ea3c15,19,Female,Right handed,2021-07-26_21h11.55.340,MA Experiment 2,2021.1.2,Win32,60.05645307,,,,,,,,,,
1.7156,response_2,longValid,PICTURE,POTATO,0,3,3,7,1,BUCKLE,WALLABY,long,resources/sound/prac_trials/practice_cue_human7.mp3,60fd9f7caf1a4931e2ea3c15,19,Female,Right handed,2021-07-26_21h11.55.340,MA Experiment 2,2021.1.2,Win32,60.05645307,,,,,,,,,,
1.2895,response_2,longValid,TEMPLE,NEIGHBOURHOOD,0,4,4,3,1,EAGER,QUALIFY,short,resources/sound/prac_trials/practice_cue_human3.mp3,60fd9f7caf1a4931e2ea3c15,19,Female,Right handed,2021-07-26_21h11.55.340,MA Experiment 2,2021.1.2,Win32,60.05645307,,,,,,,,,,
1.4908,response_2,longValid,SODA,ALCOHOL,0,5,5,4,1,FIZZY,ELECTRIC,short,resources/sound/prac_trials/practice_cue4.mp3,60fd9f7caf1a4931e2ea3c15,19,Female,Right handed,2021-07-26_21h11.55.340,MA Experiment 2,2021.1.2,Win32,60.05645307,,,,,,,,,,
1.1731,response_2,shortFoil,DANCER,UMBRELLA,0,6,6,9,1,GRUMPY,LABYRINTH,long,resources/sound/prac_trials/practice_cue_human9.mp3,60fd9f7caf1a4931e2ea3c15,19,Female,Right handed,2021-07-26_21h11.55.340,MA Experiment 2,2021.1.2,Win32,60.05645307,,,,,,,,,,
1.2074,response_2,longValid,LIQUID,FIREWOOD,0,7,7,0,1,AARDVARK,FALLACY,short,resources/sound/prac_trials/practice_cue0.mp3,60fd9f7caf1a4931e2ea3c15,19,Female,Right handed,2021-07-26_21h11.55.340,MA Experiment 2,2021.1.2,Win32,60.05645307,,,,,,,,,,
1.3898,response_1,shortFoil,INVOICE,ICICLE,0,8,8,10,1,SAFFRON,JAVELIN,long,resources/sound/prac_trials/practice_cue10.mp3,60fd9f7caf1a4931e2ea3c15,19,Female,Right handed,2021-07-26_21h11.55.340,MA Experiment 2,2021.1.2,Win32,60.05645307,,,,,,,,,,
1.2534,response_2,shortFoil,RUSTY,POLICEMAN,0,9,9,6,1,VACANT,SALVATION,long,resources/sound/prac_trials/practice_cue6.mp3,60fd9f7caf1a4931e2ea3c15,19,Female,Right handed,2021-07-26_21h11.55.340,MA Experiment 2,2021.1.2,Win32,60.05645307,,,,,,,,,,
1.3197,response_1,shortValid,STOCKING,BEVERAGE,0,10,10,11,1,KETCHUP,GONDOLA,long,resources/sound/prac_trials/practice_cue_human11.mp3,60fd9f7caf1a4931e2ea3c15,19,Female,Right handed,2021-07-26_21h11.55.340,MA Experiment 2,2021.1.2,Win32,60.05645307,,,,,,,,,,
1.8216,response_2,longFoil,CEREAL,SETTLEMENT,0,11,11,8,1,DAGGER,EMPHASIS,long,resources/sound/prac_trials/practice_cue8.mp3,60fd9f7caf1a4931e2ea3c15,19,Female,Right handed,2021-07-26_21h11.55.340,MA Experiment 2,2021.1.2,Win32,60.05645307,,,,,,,,,,
0.9081,response_2,longFoil,CAPTAIN,CLARINET,,,,,,MINER,EMERALD,long,resources/sound/trials/audio_stim_comp6.mp3,60fd9f7caf1a4931e2ea3c15,19,Female,Right handed,2021-07-26_21h11.55.340,MA Experiment 2,2021.1.2,Win32,60.05645307,0,0,0,18,1,,,,,
1.1754,response_1,longFoil,ANCHOR,GINGERBREAD,,,,,,HARDWARE,OVERCOAT,short,resources/sound/trials/audio_stim_human35.mp3,60fd9f7caf1a4931e2ea3c15,19,Female,Right handed,2021-07-26_21h11.55.340,MA Experiment 2,2021.1.2,Win32,60.05645307,0,1,1,8,1,,,,,
1.912,response_1,shortFoil,WINDOW,INTERVIEW,,,,,,HARDWARE,OVERCOAT,long,resources/sound/trials/audio_stim_human35.mp3,60fd9f7caf1a4931e2ea3c15,19,Female,Right handed,2021-07-26_21h11.55.340,MA Experiment 2,2021.1.2,Win32,60.05645307,0,2,2,25,1,,,,,
1.4741,response_2,,VILLAGE,BUTTERFLY,,,,,,IRIS,VIOLIN,short,resources/sound/catchTrials/audio_control_comp_project12.mp3,60fd9f7caf1a4931e2ea3c15,19,Female,Right handed,2021-07-26_21h11.55.340,MA Experiment 2,2021.1.2,Win32,60.05645307,,,,,,0,7,7,4,1
1.6888,response_1,longFoil,TRAITOR,GORILLA,,,,,,RECEIPT,LIMOUSINE,short,resources/sound/trials/audio_stim_comp40.mp3,60fd9f7caf1a4931e2ea3c15,19,Female,Right handed,2021-07-26_21h11.55.340,MA Experiment 2,2021.1.2,Win32,60.05645307,0,3,3,2,1,,,,,
2.5581,response_1,shortValid,INCOME,INJURY,,,,,,PARTY,SANCTUARY,short,resources/sound/trials/audio_stim_human50.mp3,60fd9f7caf1a4931e2ea3c15,19,Female,Right handed,2021-07-26_21h11.55.340,MA Experiment 2,2021.1.2,Win32,60.05645307,0,4,4,14,1,,,,,
1.508,response_1,shortFoil,PIPING,PHYSICIAN,,,,,,WHISTLE,TREASURER,long,resources/sound/trials/audio_stim_comp12.mp3,60fd9f7caf1a4931e2ea3c15,19,Female,Right handed,2021-07-26_21h11.55.340,MA Experiment 2,2021.1.2,Win32,60.05645307,0,5,5,20,1,,,,,
1.3563,response_2,longValid,VAPOUR,INSTITUTE,,,,,,ROBBER,RATTLESNAKE,short,resources/sound/trials/audio_stim_human64.mp3,60fd9f7caf1a4931e2ea3c15,19,Female,Right handed,2021-07-26_21h11.55.340,MA Experiment 2,2021.1.2,Win32,60.05645307,0,6,6,15,1,,,,,
1.0571,response_2,,CABIN,MICROSCOPE,,,,,,CORNER,ENGINEER,short,resources/sound/catchTrials/audio_control_comp_project14.mp3,60fd9f7caf1a4931e2ea3c15,19,Female,Right handed,2021-07-26_21h11.55.340,MA Experiment 2,2021.1.2,Win32,60.05645307,,,,,,0,0,0,1,1
0.7242,response_1,shortValid,PIANO,MINERAL,,,,,,MARBLE,CUSTOMER,short,resources/sound/trials/audio_stim_comp65.mp3,60fd9f7caf1a4931e2ea3c15,19,Female,Right handed,2021-07-26_21h11.55.340,MA Experiment 2,2021.1.2,Win32,60.05645307,0,7,7,4,1,,,,,
1.5622,response_2,shortValid,PODIUM,MEDICINE,,,,,,ROBBER,RATTLESNAKE,long,resources/sound/trials/audio_stim_human64.mp3,60fd9f7caf1a4931e2ea3c15,19,Female,Right handed,2021-07-26_21h11.55.340,MA Experiment 2,2021.1.2,Win32,60.05645307,0,8,8,32,1,,,,,
1.6947,response_1,longFoil,TORTURE,FAMILY,,,,,,MINER,EMERALD,long,resources/sound/trials/audio_stim_human6.mp3,60fd9f7caf1a4931e2ea3c15,19,Female,Right handed,2021-07-26_21h11.55.340,MA Experiment 2,2021.1.2,Win32,60.05645307,0,9,9,30,1,,,,,
1.7823,response_1,shortFoil,DECOY,CINNAMON,,,,,,SACRED,GALAXY,long,resources/sound/trials/audio_stim_comp1.mp3,60fd9f7caf1a4931e2ea3c15,19,Female,Right handed,2021-07-26_21h11.55.340,MA Experiment 2,2021.1.2,Win32,60.05645307,0,10,10,24,1,,,,,
1.478,response_2,,GIRDLE,AVENUE,,,,,,JOURNAL,ROBBERY,long,resources/sound/catchTrials/audio_control_human_project02.mp3,60fd9f7caf1a4931e2ea3c15,19,Female,Right handed,2021-07-26_21h11.55.340,MA Experiment 2,2021.1.2,Win32,60.05645307,,,,,,0,12,12,29,1
1.9917,response_1,longValid,MURAL,PHOTOGRAPH,,,,,,DAYLIGHT,MATERIAL,long,resources/sound/trials/audio_stim_human42.mp3,60fd9f7caf1a4931e2ea3c15,19,Female,Right handed,2021-07-26_21h11.55.340,MA Experiment 2,2021.1.2,Win32,60.05645307,0,11,11,26,1,,,,,
1.3855,response_1,shortValid,SHEEPSKIN,VINEGAR,,,,,,CONCRETE,ENEMY,long,resources/sound/trials/audio_stim_human67.mp3,60fd9f7caf1a4931e2ea3c15,19,Female,Right handed,2021-07-26_21h11.55.340,MA Experiment 2,2021.1.2,Win32,60.05645307,0,12,12,27,1,,,,,
2.0946,response_1,shortFoil,NAPKIN,APPLIANCE,,,,,,DRIZZLE,CARDINAL,short,resources/sound/trials/audio_stim_comp69.mp3,60fd9f7caf1a4931e2ea3c15,19,Female,Right handed,2021-07-26_21h11.55.340,MA Experiment 2,2021.1.2,Win32,60.05645307,0,13,13,0,1,,,,,
2.1125,response_2,longValid,RABBI,GALLERY,,,,,,ATHLETE,IVORY,long,resources/sound/trials/audio_stim_comp57.mp3,60fd9f7caf1a4931e2ea3c15,19,Female,Right handed,2021-07-26_21h11.55.340,MA Experiment 2,2021.1.2,Win32,60.05645307,0,14,14,22,1,,,,,
0.7608,response_2,,FEVER,AMBULANCE,,,,,,JOURNAL,ROBBERY,short,resources/sound/catchTrials/audio_control_human_project02.mp3,60fd9f7caf1a4931e2ea3c15,19,Female,Right handed,2021-07-26_21h11.55.340,MA Experiment 2,2021.1.2,Win32,60.05645307,,,,,,0,19,19,13,1
1.943,response_2,longFoil,CANTEEN,CITIZEN,,,,,,WORKER,VISITOR,long,resources/sound/trials/audio_stim_comp17.mp3,60fd9f7caf1a4931e2ea3c15,19,Female,Right handed,2021-07-26_21h11.55.340,MA Experiment 2,2021.1.2,Win32,60.05645307,0,15,15,23,1,,,,,
1.7834,response_1,shortValid,SCOOTER,FURNITURE,,,,,,RUBBER,PROPERTY,short,resources/sound/trials/audio_stim_human0.mp3,60fd9f7caf1a4931e2ea3c15,19,Female,Right handed,2021-07-26_21h11.55.340,MA Experiment 2,2021.1.2,Win32,60.05645307,0,16,16,12,1,,,,,
1.2558,response_2,longFoil,JURY,ORNAMENT,,,,,,ATHLETE,IVORY,short,resources/sound/trials/audio_stim_comp57.mp3,60fd9f7caf1a4931e2ea3c15,19,Female,Right handed,2021-07-26_21h11.55.340,MA Experiment 2,2021.1.2,Win32,60.05645307,0,17,17,5,1,,,,,
1.6259,response_1,shortValid,MURDER,ENAMEL,,,,,,RUBBER,PROPERTY,long,resources/sound/trials/audio_stim_human0.mp3,60fd9f7caf1a4931e2ea3c15,19,Female,Right handed,2021-07-26_21h11.55.340,MA Experiment 2,2021.1.2,Win32,60.05645307,0,18,18,29,1,,,,,
1.8756,response_2,,SINGER,JANITOR,,,,,,SPINACH,APRICOT,long,resources/sound/catchTrials/audio_control_comp_project18.mp3,60fd9f7caf1a4931e2ea3c15,19,Female,Right handed,2021-07-26_21h11.55.340,MA Experiment 2,2021.1.2,Win32,60.05645307,,,,,,0,23,23,21,1
1.423,response_1,longFoil,BEETLE,MONUMENT,,,,,,DAYLIGHT,MATERIAL,short,resources/sound/trials/audio_stim_human42.mp3,60fd9f7caf1a4931e2ea3c15,19,Female,Right handed,2021-07-26_21h11.55.340,MA Experiment 2,2021.1.2,Win32,60.05645307,0,19,19,9,1,,,,,
2.2728,response_1,shortValid,KERNEL,CARNATION,,,,,,BRAINSTORM,GREEN NEEDLE,long,resources/sound/trials/audio_stim_original.mp3,60fd9f7caf1a4931e2ea3c15,19,Female,Right handed,2021-07-26_21h11.55.340,MA Experiment 2,2021.1.2,Win32,60.05645307,0,20,20,33,1,,,,,
2.0884,response_2,longFoil,PATIENT,ANTIQUE,,,,,,MINER,EMERALD,short,resources/sound/trials/audio_stim_comp6.mp3,60fd9f7caf1a4931e2ea3c15,19,Female,Right handed,2021-07-26_21h11.55.340,MA Experiment 2,2021.1.2,Win32,60.05645307,0,21,21,1,1,,,,,
2.1323,response_1,longFoil,SEGMENT,CHOCOLATE,,,,,,PAINTER,VEHICLE,short,resources/sound/trials/audio_stim_human47.mp3,60fd9f7caf1a4931e2ea3c15,19,Female,Right handed,2021-07-26_21h11.55.340,MA Experiment 2,2021.1.2,Win32,60.05645307,0,22,22,11,1,,,,,
1.691,response_1,,OFFICE,STRAWBERRY,,,,,,POISON,REVOLVER,long,resources/sound/catchTrials/audio_control_human_project01.mp3,60fd9f7caf1a4931e2ea3c15,19,Female,Right handed,2021-07-26_21h11.55.340,MA Experiment 2,2021.1.2,Win32,60.05645307,,,,,,0,1,1,25,1
1.9344,response_1,longValid,BERRY,ENVELOPE,,,,,,WORKER,VISITOR,short,resources/sound/trials/audio_stim_comp17.mp3,60fd9f7caf1a4931e2ea3c15,19,Female,Right handed,2021-07-26_21h11.55.340,MA Experiment 2,2021.1.2,Win32,60.05645307,0,23,23,6,1,,,,,
1.1578,response_2,shortValid,SHOULDER,PROPELLER,,,,,,MARBLE,CUSTOMER,long,resources/sound/trials/audio_stim_comp65.mp3,60fd9f7caf1a4931e2ea3c15,19,Female,Right handed,2021-07-26_21h11.55.340,MA Experiment 2,2021.1.2,Win32,60.05645307,0,24,24,21,1,,,,,
2.0574,response_2,longFoil,SOFA,ALPHABET,,,,,,SACRED,GALAXY,short,resources/sound/trials/audio_stim_comp1.mp3,60fd9f7caf1a4931e2ea3c15,19,Female,Right handed,2021-07-26_21h11.55.340,MA Experiment 2,2021.1.2,Win32,60.05645307,0,25,25,7,1,,,,,
1.6913,response_1,shortFoil,DIVING,CONVENTION,,,,,,BRAINSTORM,GREEN NEEDLE,short,resources/sound/trials/audio_stim_original.mp3,60fd9f7caf1a4931e2ea3c15,19,Female,Right handed,2021-07-26_21h11.55.340,MA Experiment 2,2021.1.2,Win32,60.05645307,0,26,26,16,1,,,,,
1.6945,response_2,,PERSON,GYMNASTICS,,,,,,IRIS,VIOLIN,long,resources/sound/catchTrials/audio_control_comp_project12.mp3,60fd9f7caf1a4931e2ea3c15,19,Female,Right handed,2021-07-26_21h11.55.340,MA Experiment 2,2021.1.2,Win32,60.05645307,,,,,,0,29,29,20,1
2.0436,response_1,longFoil,BUTTER,COMMITTEE,,,,,,DRIZZLE,CARDINAL,long,resources/sound/trials/audio_stim_comp69.mp3,60fd9f7caf1a4931e2ea3c15,19,Female,Right handed,2021-07-26_21h11.55.340,MA Experiment 2,2021.1.2,Win32,60.05645307,0,27,27,17,1,,,,,
2.209,response_1,shortValid,HAMMER,CABINET,,,,,,PAINTER,VEHICLE,long,resources/sound/trials/audio_stim_human47.mp3,60fd9f7caf1a4931e2ea3c15,19,Female,Right handed,2021-07-26_21h11.55.340,MA Experiment 2,2021.1.2,Win32,60.05645307,0,28,28,28,1,,,,,
1.9563,response_2,shortValid,FERTILE,DESTROYER,,,,,,MINER,EMERALD,short,resources/sound/trials/audio_stim_human6.mp3,60fd9f7caf1a4931e2ea3c15,19,Female,Right handed,2021-07-26_21h11.55.340,MA Experiment 2,2021.1.2,Win32,60.05645307,0,29,29,13,1,,,,,
1.8053,response_4,shortFoil,CRYSTAL,FISHERMAN,,,,,,WHISTLE,TREASURER,short,resources/sound/trials/audio_stim_comp12.mp3,60fd9f7caf1a4931e2ea3c15,19,Female,Right handed,2021-07-26_21h11.55.340,MA Experiment 2,2021.1.2,Win32,60.05645307,0,30,30,3,1,,,,,
1.8722,response_1,,NURSERY,MOSQUITO,,,,,,JUGGLER,DANDELION,long,resources/sound/catchTrials/audio_control_human_project09.mp3,60fd9f7caf1a4931e2ea3c15,19,Female,Right handed,2021-07-26_21h11.55.340,MA Experiment 2,2021.1.2,Win32,60.05645307,,,,,,0,3,3,31,1
2.055,response_1,shortFoil,NATIVE,INSTRUCTOR,,,,,,CONCRETE,ENEMY,short,resources/sound/trials/audio_stim_human67.mp3,60fd9f7caf1a4931e2ea3c15,19,Female,Right handed,2021-07-26_21h11.55.340,MA Experiment 2,2021.1.2,Win32,60.05645307,0,31,31,10,1,,,,,
1.4915,response_1,shortValid,DIAL,TEMPERATURE,,,,,,RECEIPT,LIMOUSINE,long,resources/sound/trials/audio_stim_comp40.mp3,60fd9f7caf1a4931e2ea3c15,19,Female,Right handed,2021-07-26_21h11.55.340,MA Experiment 2,2021.1.2,Win32,60.05645307,0,32,32,19,1,,,,,
2.3393,response_2,shortValid,CURFEW,GOVERNMENT,,,,,,PARTY,SANCTUARY,long,resources/sound/trials/audio_stim_human50.mp3,60fd9f7caf1a4931e2ea3c15,19,Female,Right handed,2021-07-26_21h11.55.340,MA Experiment 2,2021.1.2,Win32,60.05645307,0,33,33,31,1,,,,,
1.9816,response_2,longFoil,WIRE,RETAILER,,,,,,PARTY,SANCTUARY,long,resources/sound/trials/audio_stim_human50.mp3,60fd9f7caf1a4931e2ea3c15,19,Female,Right handed,2021-07-26_21h11.55.340,MA Experiment 2,2021.1.2,Win32,60.05645307,1,0,34,31,1,,,,,
2.0908,response_1,longFoil,MEDICINE,PROJECTOR,,,,,,DAYLIGHT,MATERIAL,long,resources/sound/trials/audio_stim_human42.mp3,60fd9f7caf1a4931e2ea3c15,19,Female,Right handed,2021-07-26_21h11.55.340,MA Experiment 2,2021.1.2,Win32,60.05645307,1,1,35,26,1,,,,,
1.2121,response_2,shortValid,LIGHTNING,NEWSPAPER,,,,,,MINER,EMERALD,short,resources/sound/trials/audio_stim_comp6.mp3,60fd9f7caf1a4931e2ea3c15,19,Female,Right handed,2021-07-26_21h11.55.340,MA Experiment 2,2021.1.2,Win32,60.05645307,1,2,36,1,1,,,,,
0.8754,response_2,,VALLEY,ATTENDANT,,,,,,HOBBY,COLONY,short,resources/sound/catchTrials/audio_control_human_project04.mp3,60fd9f7caf1a4931e2ea3c15,19,Female,Right handed,2021-07-26_21h11.55.340,MA Experiment 2,2021.1.2,Win32,60.05645307,,,,,,0,24,24,11,1
2.5946,response_1,shortValid,DWELLER,CAPITAL,,,,,,PAINTER,VEHICLE,short,resources/sound/trials/audio_stim_human47.mp3,60fd9f7caf1a4931e2ea3c15,19,Female,Right handed,2021-07-26_21h11.55.340,MA Experiment 2,2021.1.2,Win32,60.05645307,1,3,37,11,1,,,,,
1.0131,response_2,longValid,OLIVE,CROCODILE,,,,,,MINER,EMERALD,long,resources/sound/trials/audio_stim_comp6.mp3,60fd9f7caf1a4931e2ea3c15,19,Female,Right handed,2021-07-26_21h11.55.340,MA Experiment 2,2021.1.2,Win32,60.05645307,1,4,38,18,1,,,,,
1.5058,response_2,longValid,ACRE,ADMIRAL,,,,,,PAINTER,VEHICLE,long,resources/sound/trials/audio_stim_human47.mp3,60fd9f7caf1a4931e2ea3c15,19,Female,Right handed,2021-07-26_21h11.55.340,MA Experiment 2,2021.1.2,Win32,60.05645307,1,5,39,28,1,,,,,
1.4887,response_1,longFoil,SULPHUR,DIAMOND,,,,,,WHISTLE,TREASURER,long,resources/sound/trials/audio_stim_comp12.mp3,60fd9f7caf1a4931e2ea3c15,19,Female,Right handed,2021-07-26_21h11.55.340,MA Experiment 2,2021.1.2,Win32,60.05645307,1,6,40,20,1,,,,,
1.2096,response_1,,WRITING,AMMONIA,,,,,,VIOLET,LUBRICANT,short,resources/sound/catchTrials/audio_control_human_project07.mp3,60fd9f7caf1a4931e2ea3c15,19,Female,Right handed,2021-07-26_21h11.55.340,MA Experiment 2,2021.1.2,Win32,60.05645307,,,,,,0,13,13,12,1
0.9421,response_2,longValid,POLO,MESSENGER,,,,,,DRIZZLE,CARDINAL,long,resources/sound/trials/audio_stim_comp69.mp3,60fd9f7caf1a4931e2ea3c15,19,Female,Right handed,2021-07-26_21h11.55.340,MA Experiment 2,2021.1.2,Win32,60.05645307,1,7,41,17,1,,,,,
1.5226,response_2,longFoil,WALRUS,FACTORY,,,,,,PARTY,SANCTUARY,short,resources/sound/trials/audio_stim_human50.mp3,60fd9f7caf1a4931e2ea3c15,19,Female,Right handed,2021-07-26_21h11.55.340,MA Experiment 2,2021.1.2,Win32,60.05645307,1,8,42,14,1,,,,,
0.6759,response_1,longFoil,HAMSTER,TANGERINE,,,,,,HARDWARE,OVERCOAT,long,resources/sound/trials/audio_stim_human35.mp3,60fd9f7caf1a4931e2ea3c15,19,Female,Right handed,2021-07-26_21h11.55.340,MA Experiment 2,2021.1.2,Win32,60.05645307,1,9,43,25,1,,,,,
2.0467,response_1,shortFoil,CIGAR,INSTRUMENT,,,,,,MINER,EMERALD,long,resources/sound/trials/audio_stim_human6.mp3,60fd9f7caf1a4931e2ea3c15,19,Female,Right handed,2021-07-26_21h11.55.340,MA Experiment 2,2021.1.2,Win32,60.05645307,1,10,44,30,1,,,,,
1.7293,response_1,,NECKLACE,CAMERA,,,,,,VIOLET,LUBRICANT,short,resources/sound/catchTrials/audio_control_comp_project07.mp3,60fd9f7caf1a4931e2ea3c15,19,Female,Right handed,2021-07-26_21h11.55.340,MA Experiment 2,2021.1.2,Win32,60.05645307,,,,,,0,9,9,3,1
1.4412,response_2,longFoil,WAFER,MECHANIC,,,,,,SACRED,GALAXY,long,resources/sound/trials/audio_stim_comp1.mp3,60fd9f7caf1a4931e2ea3c15,19,Female,Right handed,2021-07-26_21h11.55.340,MA Experiment 2,2021.1.2,Win32,60.05645307,1,11,45,24,1,,,,,
1.7727,response_2,shortFoil,BURNER,CORRIDOR,,,,,,ATHLETE,IVORY,short,resources/sound/trials/audio_stim_comp57.mp3,60fd9f7caf1a4931e2ea3c15,19,Female,Right handed,2021-07-26_21h11.55.340,MA Experiment 2,2021.1.2,Win32,60.05645307,1,12,46,5,1,,,,,
1.5174,response_1,shortValid,MEASLES,PROFESSOR,,,,,,HARDWARE,OVERCOAT,short,resources/sound/trials/audio_stim_human35.mp3,60fd9f7caf1a4931e2ea3c15,19,Female,Right handed,2021-07-26_21h11.55.340,MA Experiment 2,2021.1.2,Win32,60.05645307,1,13,47,8,1,,,,,
1.6948,response_2,shortFoil,DUEL,DISSECTION,,,,,,DAYLIGHT,MATERIAL,short,resources/sound/trials/audio_stim_human42.mp3,60fd9f7caf1a4931e2ea3c15,19,Female,Right handed,2021-07-26_21h11.55.340,MA Experiment 2,2021.1.2,Win32,60.05645307,1,14,48,9,1,,,,,
1.4925,response_2,,SADDLE,HOSPITAL,,,,,,HOBBY,COLONY,long,resources/sound/catchTrials/audio_control_human_project04.mp3,60fd9f7caf1a4931e2ea3c15,19,Female,Right handed,2021-07-26_21h11.55.340,MA Experiment 2,2021.1.2,Win32,60.05645307,,,,,,0,14,14,27,1
1.6597,response_2,longValid,CHIPMUNK,HURRICANE,,,,,,SACRED,GALAXY,short,resources/sound/trials/audio_stim_comp1.mp3,60fd9f7caf1a4931e2ea3c15,19,Female,Right handed,2021-07-26_21h11.55.340,MA Experiment 2,2021.1.2,Win32,60.05645307,1,15,49,7,1,,,,,
2.0598,response_1,longFoil,HURDLE,OPENING,,,,,,WHISTLE,TREASURER,short,resources/sound/trials/audio_stim_comp12.mp3,60fd9f7caf1a4931e2ea3c15,19,Female,Right handed,2021-07-26_21h11.55.340,MA Experiment 2,2021.1.2,Win32,60.05645307,1,16,50,3,1,,,,,
1.1461,response_1,shortFoil,LEADER,INFECTION,,,,,,RECEIPT,LIMOUSINE,long,resources/sound/trials/audio_stim_comp40.mp3,60fd9f7caf1a4931e2ea3c15,19,Female,Right handed,2021-07-26_21h11.55.340,MA Experiment 2,2021.1.2,Win32,60.05645307,1,17,51,19,1,,,,,
2.1795,response_1,shortFoil,FOREARM,MINISTER,,,,,,MARBLE,CUSTOMER,long,resources/sound/trials/audio_stim_comp65.mp3,60fd9f7caf1a4931e2ea3c15,19,Female,Right handed,2021-07-26_21h11.55.340,MA Experiment 2,2021.1.2,Win32,60.05645307,1,18,52,21,1,,,,,
1.2573,response_2,,EARTHWORM,CIGARETTE,,,,,,BORDER,ALGEBRA,long,resources/sound/catchTrials/audio_control_comp_project00.mp3,60fd9f7caf1a4931e2ea3c15,19,Female,Right handed,2021-07-26_21h11.55.340,MA Experiment 2,2021.1.2,Win32,60.05645307,,,,,,0,25,25,16,1
2.3292,response_1,shortFoil,GRADUATE,HANDKERCHIEF,,,,,,BRAINSTORM,GREEN NEEDLE,long,resources/sound/trials/audio_stim_original.mp3,60fd9f7caf1a4931e2ea3c15,19,Female,Right handed,2021-07-26_21h11.55.340,MA Experiment 2,2021.1.2,Win32,60.05645307,1,19,53,33,1,,,,,
1.9961,response_1,shortFoil,EVENING,MOLECULE,,,,,,RECEIPT,LIMOUSINE,short,resources/sound/trials/audio_stim_comp40.mp3,60fd9f7caf1a4931e2ea3c15,19,Female,Right handed,2021-07-26_21h11.55.340,MA Experiment 2,2021.1.2,Win32,60.05645307,1,20,54,2,1,,,,,
1.1908,response_2,shortFoil,BISHOP,LEMONADE,,,,,,RUBBER,PROPERTY,short,resources/sound/trials/audio_stim_human0.mp3,60fd9f7caf1a4931e2ea3c15,19,Female,Right handed,2021-07-26_21h11.55.340,MA Experiment 2,2021.1.2,Win32,60.05645307,1,21,55,12,1,,,,,
0.8281,response_2,longValid,LOBSTER,CATHEDRAL,,,,,,ROBBER,RATTLESNAKE,long,resources/sound/trials/audio_stim_human64.mp3,60fd9f7caf1a4931e2ea3c15,19,Female,Right handed,2021-07-26_21h11.55.340,MA Experiment 2,2021.1.2,Win32,60.05645307,1,22,56,32,1,,,,,
1.413,response_2,,NEIGHBOUR,HEROIN,,,,,,NAVY,RECTANGLE,long,resources/sound/catchTrials/audio_control_human_project06.mp3,60fd9f7caf1a4931e2ea3c15,19,Female,Right handed,2021-07-26_21h11.55.340,MA Experiment 2,2021.1.2,Win32,60.05645307,,,,,,0,8,8,30,1
1.4455,response_2,longValid,KENNEL,HEADQUARTERS,,,,,,MARBLE,CUSTOMER,short,resources/sound/trials/audio_stim_comp65.mp3,60fd9f7caf1a4931e2ea3c15,19,Female,Right handed,2021-07-26_21h11.55.340,MA Experiment 2,2021.1.2,Win32,60.05645307,1,23,57,4,1,,,,,
0.791,response_2,shortFoil,MORNING,EMULSION,,,,,,MINER,EMERALD,short,resources/sound/trials/audio_stim_human6.mp3,60fd9f7caf1a4931e2ea3c15,19,Female,Right handed,2021-07-26_21h11.55.340,MA Experiment 2,2021.1.2,Win32,60.05645307,1,24,58,13,1,,,,,
1.4083,response_1,shortFoil,MUSCLE,LECTURER,,,,,,ATHLETE,IVORY,long,resources/sound/trials/audio_stim_comp57.mp3,60fd9f7caf1a4931e2ea3c15,19,Female,Right handed,2021-07-26_21h11.55.340,MA Experiment 2,2021.1.2,Win32,60.05645307,1,25,59,22,1,,,,,
0.6283,response_2,longFoil,HARBOUR,INDUSTRY,,,,,,ROBBER,RATTLESNAKE,short,resources/sound/trials/audio_stim_human64.mp3,60fd9f7caf1a4931e2ea3c15,19,Female,Right handed,2021-07-26_21h11.55.340,MA Experiment 2,2021.1.2,Win32,60.05645307,1,26,60,15,1,,,,,
1.0909,response_2,,STATION,ATHLETICS,,,,,,NAVY,RECTANGLE,long,resources/sound/catchTrials/audio_control_comp_project06.mp3,60fd9f7caf1a4931e2ea3c15,19,Female,Right handed,2021-07-26_21h11.55.340,MA Experiment 2,2021.1.2,Win32,60.05645307,,,,,,0,17,17,22,1
0.8913,response_1,longFoil,KETTLE,SPECIALIST,,,,,,DRIZZLE,CARDINAL,short,resources/sound/trials/audio_stim_comp69.mp3,60fd9f7caf1a4931e2ea3c15,19,Female,Right handed,2021-07-26_21h11.55.340,MA Experiment 2,2021.1.2,Win32,60.05645307,1,27,61,0,1,,,,,
1.9239,response_1,longFoil,FAIRY,POLIO,,,,,,CONCRETE,ENEMY,long,resources/sound/trials/audio_stim_human67.mp3,60fd9f7caf1a4931e2ea3c15,19,Female,Right handed,2021-07-26_21h11.55.340,MA Experiment 2,2021.1.2,Win32,60.05645307,1,28,62,27,1,,,,,
2.0226,response_2,shortFoil,MOONLIGHT,ABDOMEN,,,,,,WORKER,VISITOR,long,resources/sound/trials/audio_stim_comp17.mp3,60fd9f7caf1a4931e2ea3c15,19,Female,Right handed,2021-07-26_21h11.55.340,MA Experiment 2,2021.1.2,Win32,60.05645307,1,29,63,23,1,,,,,
1.4953,response_2,shortFoil,DOORWAY,CANDLELIGHT,,,,,,RUBBER,PROPERTY,long,resources/sound/trials/audio_stim_human0.mp3,60fd9f7caf1a4931e2ea3c15,19,Female,Right handed,2021-07-26_21h11.55.340,MA Experiment 2,2021.1.2,Win32,60.05645307,1,30,64,29,1,,,,,
1.9413,response_2,,FATHER,SAXOPHONE,,,,,,NAVY,RECTANGLE,short,resources/sound/catchTrials/audio_control_comp_project06.mp3,60fd9f7caf1a4931e2ea3c15,19,Female,Right handed,2021-07-26_21h11.55.340,MA Experiment 2,2021.1.2,Win32,60.05645307,,,,,,0,30,30,6,1
1.9267,response_1,longFoil,NOVEL,ACROBAT,,,,,,CONCRETE,ENEMY,short,resources/sound/trials/audio_stim_human67.mp3,60fd9f7caf1a4931e2ea3c15,19,Female,Right handed,2021-07-26_21h11.55.340,MA Experiment 2,2021.1.2,Win32,60.05645307,1,31,65,10,1,,,,,
2.0796,response_1,shortValid,UNCLE,GRASSHOPPER,,,,,,BRAINSTORM,GREEN NEEDLE,short,resources/sound/trials/audio_stim_original.mp3,60fd9f7caf1a4931e2ea3c15,19,Female,Right handed,2021-07-26_21h11.55.340,MA Experiment 2,2021.1.2,Win32,60.05645307,1,32,66,16,1,,,,,
2.6427,response_2,longFoil,TWEEZER,ASBESTOS,,,,,,WORKER,VISITOR,short,resources/sound/trials/audio_stim_comp17.mp3,60fd9f7caf1a4931e2ea3c15,19,Female,Right handed,2021-07-26_21h11.55.340,MA Experiment 2,2021.1.2,Win32,60.05645307,1,33,67,6,1,,,,,
2.8279,response_1,longFoil,VESSEL,REFEREE,,,,,,MARBLE,CUSTOMER,long,resources/sound/trials/audio_stim_comp65.mp3,60fd9f7caf1a4931e2ea3c15,19,Female,Right handed,2021-07-26_21h11.55.340,MA Experiment 2,2021.1.2,Win32,60.05645307,2,0,68,21,1,,,,,
1.5616,response_2,longValid,POLO,GOVERNMENT,,,,,,MINER,EMERALD,long,resources/sound/trials/audio_stim_human6.mp3,60fd9f7caf1a4931e2ea3c15,19,Female,Right handed,2021-07-26_21h11.55.340,MA Experiment 2,2021.1.2,Win32,60.05645307,2,1,69,30,1,,,,,
1.3595,response_2,longFoil,DANCER,CROCODILE,,,,,,ROBBER,RATTLESNAKE,long,resources/sound/trials/audio_stim_human64.mp3,60fd9f7caf1a4931e2ea3c15,19,Female,Right handed,2021-07-26_21h11.55.340,MA Experiment 2,2021.1.2,Win32,60.05645307,2,2,70,32,1,,,,,
1.9457,response_1,,SADDLE,ACROBAT,,,,,,POISON,REVOLVER,short,resources/sound/catchTrials/audio_control_human_project01.mp3,60fd9f7caf1a4931e2ea3c15,19,Female,Right handed,2021-07-26_21h11.55.340,MA Experiment 2,2021.1.2,Win32,60.05645307,,,,,,0,10,10,9,1
1.0141,response_1,shortValid,PRINCESS,CINNAMON,,,,,,DRIZZLE,CARDINAL,short,resources/sound/trials/audio_stim_comp69.mp3,60fd9f7caf1a4931e2ea3c15,19,Female,Right handed,2021-07-26_21h11.55.340,MA Experiment 2,2021.1.2,Win32,60.05645307,2,3,71,0,1,,,,,
1.2742,response_1,shortValid,CHIPMUNK,DIAMOND,,,,,,RECEIPT,LIMOUSINE,short,resources/sound/trials/audio_stim_comp40.mp3,60fd9f7caf1a4931e2ea3c15,19,Female,Right handed,2021-07-26_21h11.55.340,MA Experiment 2,2021.1.2,Win32,60.05645307,2,4,72,2,1,,,,,
2.3608,response_2,shortValid,MEASLES,DISSECTION,,,,,,WHISTLE,TREASURER,long,resources/sound/trials/audio_stim_comp12.mp3,60fd9f7caf1a4931e2ea3c15,19,Female,Right handed,2021-07-26_21h11.55.340,MA Experiment 2,2021.1.2,Win32,60.05645307,2,5,73,20,1,,,,,
1.6253,response_1,longValid,CURFEW,MOLECULE,,,,,,CONCRETE,ENEMY,short,resources/sound/trials/audio_stim_human67.mp3,60fd9f7caf1a4931e2ea3c15,19,Female,Right handed,2021-07-26_21h11.55.340,MA Experiment 2,2021.1.2,Win32,60.05645307,2,6,74,10,1,,,,,
2.2103,response_1,,BURNER,CIGARETTE,,,,,,VIOLET,LUBRICANT,long,resources/sound/catchTrials/audio_control_comp_project07.mp3,60fd9f7caf1a4931e2ea3c15,19,Female,Right handed,2021-07-26_21h11.55.340,MA Experiment 2,2021.1.2,Win32,60.05645307,,,,,,0,6,6,19,1
2.7055,response_1,longValid,MORNING,NEIGHBOURHOOD,,,,,,ATHLETE,IVORY,short,resources/sound/trials/audio_stim_comp57.mp3,60fd9f7caf1a4931e2ea3c15,19,Female,Right handed,2021-07-26_21h11.55.340,MA Experiment 2,2021.1.2,Win32,60.05645307,2,7,75,5,1,,,,,
1.9053,response_2,longFoil,DIVING,AMBULANCE,,,,,,MARBLE,CUSTOMER,short,resources/sound/trials/audio_stim_comp65.mp3,60fd9f7caf1a4931e2ea3c15,19,Female,Right handed,2021-07-26_21h11.55.340,MA Experiment 2,2021.1.2,Win32,60.05645307,2,8,76,4,1,,,,,
1.9068,response_1,shortValid,SCOOTER,PROPELLER,,,,,,DAYLIGHT,MATERIAL,long,resources/sound/trials/audio_stim_human42.mp3,60fd9f7caf1a4931e2ea3c15,19,Female,Right handed,2021-07-26_21h11.55.340,MA Experiment 2,2021.1.2,Win32,60.05645307,2,9,77,26,1,,,,,
1.9228,response_1,longValid,LIGHTNING,RETAILER,,,,,,RUBBER,PROPERTY,long,resources/sound/trials/audio_stim_human0.mp3,60fd9f7caf1a4931e2ea3c15,19,Female,Right handed,2021-07-26_21h11.55.340,MA Experiment 2,2021.1.2,Win32,60.05645307,2,10,78,29,1,,,,,
1.4457,response_2,,MEDICINE,MECHANIC,,,,,,BORDER,ALGEBRA,short,resources/sound/catchTrials/audio_control_comp_project00.mp3,60fd9f7caf1a4931e2ea3c15,19,Female,Right handed,2021-07-26_21h11.55.340,MA Experiment 2,2021.1.2,Win32,60.05645307,,,,,,0,11,11,0,1
1.8901,response_1,shortFoil,LOBSTER,FISHERMAN,,,,,,CONCRETE,ENEMY,long,resources/sound/trials/audio_stim_human67.mp3,60fd9f7caf1a4931e2ea3c15,19,Female,Right handed,2021-07-26_21h11.55.340,MA Experiment 2,2021.1.2,Win32,60.05645307,2,11,79,27,1,,,,,
0.9961,response_2,longValid,FAIRY,SPECIALIST,,,,,,MINER,EMERALD,short,resources/sound/trials/audio_stim_human6.mp3,60fd9f7caf1a4931e2ea3c15,19,Female,Right handed,2021-07-26_21h11.55.340,MA Experiment 2,2021.1.2,Win32,60.05645307,2,12,80,13,1,,,,,
1.6236,response_1,shortValid,KETTLE,FURNITURE,,,,,,SACRED,GALAXY,short,resources/sound/trials/audio_stim_comp1.mp3,60fd9f7caf1a4931e2ea3c15,19,Female,Right handed,2021-07-26_21h11.55.340,MA Experiment 2,2021.1.2,Win32,60.05645307,2,13,81,7,1,,,,,
1.5415,response_1,shortFoil,NEIGHBOUR,SAXOPHONE,,,,,,WORKER,VISITOR,short,resources/sound/trials/audio_stim_comp17.mp3,60fd9f7caf1a4931e2ea3c15,19,Female,Right handed,2021-07-26_21h11.55.340,MA Experiment 2,2021.1.2,Win32,60.05645307,2,14,82,6,1,,,,,
1.4059,response_2,,HAMSTER,CLARINET,,,,,,IRIS,VIOLIN,long,resources/sound/catchTrials/audio_control_human_project12.mp3,60fd9f7caf1a4931e2ea3c15,19,Female,Right handed,2021-07-26_21h11.55.340,MA Experiment 2,2021.1.2,Win32,60.05645307,,,,,,0,28,28,24,1
1.2769,response_1,longFoil,PIANO,TANGERINE,,,,,,RECEIPT,LIMOUSINE,long,resources/sound/trials/audio_stim_comp40.mp3,60fd9f7caf1a4931e2ea3c15,19,Female,Right handed,2021-07-26_21h11.55.340,MA Experiment 2,2021.1.2,Win32,60.05645307,2,15,83,19,1,,,,,
1.1389,response_2,longValid,PATIENT,BUTTERFLY,,,,,,HARDWARE,OVERCOAT,short,resources/sound/trials/audio_stim_human35.mp3,60fd9f7caf1a4931e2ea3c15,19,Female,Right handed,2021-07-26_21h11.55.340,MA Experiment 2,2021.1.2,Win32,60.05645307,2,16,84,8,1,,,,,
1.223,response_2,longValid,WALRUS,REFEREE,,,,,,BRAINSTORM,GREEN NEEDLE,long,resources/sound/trials/audio_stim_original.mp3,60fd9f7caf1a4931e2ea3c15,19,Female,Right handed,2021-07-26_21h11.55.340,MA Experiment 2,2021.1.2,Win32,60.05645307,2,17,85,33,1,,,,,
1.6763,response_2,longValid,KERNEL,AVENUE,,,,,,MINER,EMERALD,short,resources/sound/trials/audio_stim_comp6.mp3,60fd9f7caf1a4931e2ea3c15,19,Female,Right handed,2021-07-26_21h11.55.340,MA Experiment 2,2021.1.2,Win32,60.05645307,2,18,86,1,1,,,,,
2.1782,response_1,,FOREARM,PHYSICIAN,,,,,,JUGGLER,DANDELION,short,resources/sound/catchTrials/audio_control_human_project09.mp3,60fd9f7caf1a4931e2ea3c15,19,Female,Right handed,2021-07-26_21h11.55.340,MA Experiment 2,2021.1.2,Win32,60.05645307,,,,,,0,5,5,15,1
1.2383,response_2,shortValid,CANTEEN,ENAMEL,,,,,,ROBBER,RATTLESNAKE,short,resources/sound/trials/audio_stim_human64.mp3,60fd9f7caf1a4931e2ea3c15,19,Female,Right handed,2021-07-26_21h11.55.340,MA Experiment 2,2021.1.2,Win32,60.05645307,2,19,87,15,1,,,,,
1.0247,response_1,longValid,SEGMENT,PROFESSOR,,,,,,PARTY,SANCTUARY,short,resources/sound/trials/audio_stim_human50.mp3,60fd9f7caf1a4931e2ea3c15,19,Female,Right handed,2021-07-26_21h11.55.340,MA Experiment 2,2021.1.2,Win32,60.05645307,2,20,88,14,1,,,,,
0.5916,response_1,shortValid,NURSERY,POLIO,,,,,,DRIZZLE,CARDINAL,long,resources/sound/trials/audio_stim_comp69.mp3,60fd9f7caf1a4931e2ea3c15,19,Female,Right handed,2021-07-26_21h11.55.340,MA Experiment 2,2021.1.2,Win32,60.05645307,2,21,89,17,1,,,,,
0.5407,response_2,longValid,WINDOW,NEWSPAPER,,,,,,SACRED,GALAXY,long,resources/sound/trials/audio_stim_comp1.mp3,60fd9f7caf1a4931e2ea3c15,19,Female,Right handed,2021-07-26_21h11.55.340,MA Experiment 2,2021.1.2,Win32,60.05645307,2,22,90,24,1,,,,,
1.6914,response_2,,PICTURE,PROJECTOR,,,,,,SPINACH,APRICOT,short,resources/sound/catchTrials/audio_control_comp_project18.mp3,60fd9f7caf1a4931e2ea3c15,19,Female,Right handed,2021-07-26_21h11.55.340,MA Experiment 2,2021.1.2,Win32,60.05645307,,,,,,0,31,31,5,1
2.0103,response_1,shortValid,CIGAR,FACTORY,,,,,,WHISTLE,TREASURER,short,resources/sound/trials/audio_stim_comp12.mp3,60fd9f7caf1a4931e2ea3c15,19,Female,Right handed,2021-07-26_21h11.55.340,MA Experiment 2,2021.1.2,Win32,60.05645307,2,23,91,3,1,,,,,
1.9467,response_1,shortValid,OFFICE,GYMNASTICS,,,,,,WORKER,VISITOR,long,resources/sound/trials/audio_stim_comp17.mp3,60fd9f7caf1a4931e2ea3c15,19,Female,Right handed,2021-07-26_21h11.55.340,MA Experiment 2,2021.1.2,Win32,60.05645307,2,24,92,23,1,,,,,
0.5792,response_1,shortValid,NAPKIN,CATHEDRAL,,,,,,ATHLETE,IVORY,long,resources/sound/trials/audio_stim_comp57.mp3,60fd9f7caf1a4931e2ea3c15,19,Female,Right handed,2021-07-26_21h11.55.340,MA Experiment 2,2021.1.2,Win32,60.05645307,2,25,93,22,1,,,,,
2.9419,response_1,longFoil,DUEL,ORNAMENT,,,,,,PAINTER,VEHICLE,long,resources/sound/trials/audio_stim_human47.mp3,60fd9f7caf1a4931e2ea3c15,19,Female,Right handed,2021-07-26_21h11.55.340,MA Experiment 2,2021.1.2,Win32,60.05645307,2,26,94,28,1,,,,,
0.6104,response_2,,RABBI,POLICEMAN,,,,,,CORNER,ENGINEER,long,resources/sound/catchTrials/audio_control_comp_project14.mp3,60fd9f7caf1a4931e2ea3c15,19,Female,Right handed,2021-07-26_21h11.55.340,MA Experiment 2,2021.1.2,Win32,60.05645307,,,,,,0,27,27,17,1
1.8396,response_1,longValid,SODA,CAMERA,,,,,,BRAINSTORM,GREEN NEEDLE,short,resources/sound/trials/audio_stim_original.mp3,60fd9f7caf1a4931e2ea3c15,19,Female,Right handed,2021-07-26_21h11.55.340,MA Experiment 2,2021.1.2,Win32,60.05645307,2,27,95,16,1,,,,,
0.8725,response_2,shortFoil,FATHER,EMULSION,,,,,,MINER,EMERALD,long,resources/sound/trials/audio_stim_comp6.mp3,60fd9f7caf1a4931e2ea3c15,19,Female,Right handed,2021-07-26_21h11.55.340,MA Experiment 2,2021.1.2,Win32,60.05645307,2,28,96,18,1,,,,,
1.9289,response_1,shortValid,ACRE,OPENING,,,,,,DAYLIGHT,MATERIAL,short,resources/sound/trials/audio_stim_human42.mp3,60fd9f7caf1a4931e2ea3c15,19,Female,Right handed,2021-07-26_21h11.55.340,MA Experiment 2,2021.1.2,Win32,60.05645307,2,29,97,9,1,,,,,
0.6905,response_1,shortValid,BEETLE,OXYGEN,,,,,,HARDWARE,OVERCOAT,long,resources/sound/trials/audio_stim_human35.mp3,60fd9f7caf1a4931e2ea3c15,19,Female,Right handed,2021-07-26_21h11.55.340,MA Experiment 2,2021.1.2,Win32,60.05645307,2,30,98,25,1,,,,,
1.9096,response_2,,GRADUATE,MINISTER,,,,,,ICY,JITTERBUG,short,resources/sound/catchTrials/audio_control_comp_project08.mp3,60fd9f7caf1a4931e2ea3c15,19,Female,Right handed,2021-07-26_21h11.55.340,MA Experiment 2,2021.1.2,Win32,60.05645307,,,,,,0,16,16,7,1
1.877,response_2,longFoil,ANCHOR,INDUSTRY,,,,,,RUBBER,PROPERTY,short,resources/sound/trials/audio_stim_human0.mp3,60fd9f7caf1a4931e2ea3c15,19,Female,Right handed,2021-07-26_21h11.55.340,MA Experiment 2,2021.1.2,Win32,60.05645307,2,31,99,12,1,,,,,
0.8456,response_1,longValid,PIPING,HEADQUARTERS,,,,,,PAINTER,VEHICLE,short,resources/sound/trials/audio_stim_human47.mp3,60fd9f7caf1a4931e2ea3c15,19,Female,Right handed,2021-07-26_21h11.55.340,MA Experiment 2,2021.1.2,Win32,60.05645307,2,32,100,11,1,,,,,
2.2934,response_2,longValid,MISTRESS,HANDKERCHIEF,,,,,,PARTY,SANCTUARY,long,resources/sound/trials/audio_stim_human50.mp3,60fd9f7caf1a4931e2ea3c15,19,Female,Right handed,2021-07-26_21h11.55.340,MA Experiment 2,2021.1.2,Win32,60.05645307,2,33,101,31,1,,,,,
0.5622,response_1,shortValid,WIRE,STRAWBERRY,,,,,,WORKER,VISITOR,short,resources/sound/trials/audio_stim_comp17.mp3,60fd9f7caf1a4931e2ea3c15,19,Female,Right handed,2021-07-26_21h11.55.340,MA Experiment 2,2021.1.2,Win32,60.05645307,3,0,102,6,1,,,,,
2.7457,response_2,shortFoil,SHEEPSKIN,INSTITUTE,,,,,,MARBLE,CUSTOMER,short,resources/sound/trials/audio_stim_comp65.mp3,60fd9f7caf1a4931e2ea3c15,19,Female,Right handed,2021-07-26_21h11.55.340,MA Experiment 2,2021.1.2,Win32,60.05645307,3,1,103,4,1,,,,,
0.7109,response_1,shortFoil,UNCLE,DESTROYER,,,,,,HARDWARE,OVERCOAT,short,resources/sound/trials/audio_stim_human35.mp3,60fd9f7caf1a4931e2ea3c15,19,Female,Right handed,2021-07-26_21h11.55.340,MA Experiment 2,2021.1.2,Win32,60.05645307,3,2,104,8,1,,,,,
1.5086,response_2,,TUMBLE,ALCOHOL,,,,,,CORNER,ENGINEER,long,resources/sound/catchTrials/audio_control_human_project14.mp3,60fd9f7caf1a4931e2ea3c15,19,Female,Right handed,2021-07-26_21h11.55.340,MA Experiment 2,2021.1.2,Win32,60.05645307,,,,,,0,26,26,26,1
1.0913,response_1,shortValid,INVOICE,CONVENTION,,,,,,MINER,EMERALD,long,resources/sound/trials/audio_stim_human6.mp3,60fd9f7caf1a4931e2ea3c15,19,Female,Right handed,2021-07-26_21h11.55.340,MA Experiment 2,2021.1.2,Win32,60.05645307,3,3,105,30,1,,,,,
1.8561,response_1,longFoil,OLIVE,ADMIRAL,,,,,,BRAINSTORM,GREEN NEEDLE,long,resources/sound/trials/audio_stim_original.mp3,60fd9f7caf1a4931e2ea3c15,19,Female,Right handed,2021-07-26_21h11.55.340,MA Experiment 2,2021.1.2,Win32,60.05645307,3,4,106,33,1,,,,,
2.1232,response_2,longFoil,JURY,BEVERAGE,,,,,,RUBBER,PROPERTY,long,resources/sound/trials/audio_stim_human0.mp3,60fd9f7caf1a4931e2ea3c15,19,Female,Right handed,2021-07-26_21h11.55.340,MA Experiment 2,2021.1.2,Win32,60.05645307,3,5,107,29,1,,,,,
1.1743,response_2,shortFoil,PODIUM,CANDLELIGHT,,,,,,DRIZZLE,CARDINAL,long,resources/sound/trials/audio_stim_comp69.mp3,60fd9f7caf1a4931e2ea3c15,19,Female,Right handed,2021-07-26_21h11.55.340,MA Experiment 2,2021.1.2,Win32,60.05645307,3,6,108,17,1,,,,,
1.8902,response_2,,NATIVE,COMMITTEE,,,,,,HOBBY,COLONY,short,resources/sound/catchTrials/audio_control_comp_project04.mp3,60fd9f7caf1a4931e2ea3c15,19,Female,Right handed,2021-07-26_21h11.55.340,MA Experiment 2,2021.1.2,Win32,60.05645307,,,,,,0,22,22,2,1
1.7728,response_2,shortFoil,DECOY,MEDICINE,,,,,,ROBBER,RATTLESNAKE,short,resources/sound/trials/audio_stim_human64.mp3,60fd9f7caf1a4931e2ea3c15,19,Female,Right handed,2021-07-26_21h11.55.340,MA Experiment 2,2021.1.2,Win32,60.05645307,3,7,109,15,1,,,,,
1.1937,response_2,shortValid,GIRDLE,MICROSCOPE,,,,,,MINER,EMERALD,long,resources/sound/trials/audio_stim_comp6.mp3,60fd9f7caf1a4931e2ea3c15,19,Female,Right handed,2021-07-26_21h11.55.340,MA Experiment 2,2021.1.2,Win32,60.05645307,3,8,110,18,1,,,,,
0.6078,response_2,shortFoil,HURDLE,MINERAL,,,,,,PARTY,SANCTUARY,short,resources/sound/trials/audio_stim_human50.mp3,60fd9f7caf1a4931e2ea3c15,19,Female,Right handed,2021-07-26_21h11.55.340,MA Experiment 2,2021.1.2,Win32,60.05645307,3,9,111,14,1,,,,,
2.0611,response_1,shortFoil,SINGER,MOSQUITO,,,,,,PAINTER,VEHICLE,short,resources/sound/trials/audio_stim_human47.mp3,60fd9f7caf1a4931e2ea3c15,19,Female,Right handed,2021-07-26_21h11.55.340,MA Experiment 2,2021.1.2,Win32,60.05645307,3,10,112,11,1,,,,,
0.5627,response_2,,NECKLACE,CHOCOLATE,,,,,,ICY,JITTERBUG,long,resources/sound/catchTrials/audio_control_comp_project08.mp3,60fd9f7caf1a4931e2ea3c15,19,Female,Right handed,2021-07-26_21h11.55.340,MA Experiment 2,2021.1.2,Win32,60.05645307,,,,,,0,4,4,23,1
0.51,response_2,shortFoil,SOFA,LECTURER,,,,,,MINER,EMERALD,short,resources/sound/trials/audio_stim_comp6.mp3,60fd9f7caf1a4931e2ea3c15,19,Female,Right handed,2021-07-26_21h11.55.340,MA Experiment 2,2021.1.2,Win32,60.05645307,3,11,113,1,1,,,,,
1.6454,response_1,longValid,RUSTY,INJURY,,,,,,RUBBER,PROPERTY,short,resources/sound/trials/audio_stim_human0.mp3,60fd9f7caf1a4931e2ea3c15,19,Female,Right handed,2021-07-26_21h11.55.340,MA Experiment 2,2021.1.2,Win32,60.05645307,3,12,114,12,1,,,,,
1.9614,response_2,longValid,EVENING,HURRICANE,,,,,,RECEIPT,LIMOUSINE,short,resources/sound/trials/audio_stim_comp40.mp3,60fd9f7caf1a4931e2ea3c15,19,Female,Right handed,2021-07-26_21h11.55.340,MA Experiment 2,2021.1.2,Win32,60.05645307,3,13,115,2,1,,,,,
1.3795,response_1,longFoil,TRAITOR,LEMONADE,,,,,,BRAINSTORM,GREEN NEEDLE,short,resources/sound/trials/audio_stim_original.mp3,60fd9f7caf1a4931e2ea3c15,19,Female,Right handed,2021-07-26_21h11.55.340,MA Experiment 2,2021.1.2,Win32,60.05645307,3,14,116,16,1,,,,,
1.4953,response_1,,TEMPLE,PHOTOGRAPH,,,,,,VIOLET,LUBRICANT,long,resources/sound/catchTrials/audio_control_human_project07.mp3,60fd9f7caf1a4931e2ea3c15,19,Female,Right handed,2021-07-26_21h11.55.340,MA Experiment 2,2021.1.2,Win32,60.05645307,,,,,,0,18,18,28,1
2.0094,response_1,longValid,DOORWAY,APPLIANCE,,,,,,DAYLIGHT,MATERIAL,short,resources/sound/trials/audio_stim_human42.mp3,60fd9f7caf1a4931e2ea3c15,19,Female,Right handed,2021-07-26_21h11.55.340,MA Experiment 2,2021.1.2,Win32,60.05645307,3,15,117,9,1,,,,,
1.6467,response_2,longValid,HAMMER,INFECTION,,,,,,RECEIPT,LIMOUSINE,long,resources/sound/trials/audio_stim_comp40.mp3,60fd9f7caf1a4931e2ea3c15,19,Female,Right handed,2021-07-26_21h11.55.340,MA Experiment 2,2021.1.2,Win32,60.05645307,3,16,118,19,1,,,,,
0.8761,response_4,shortValid,FERTILE,GALLERY,,,,,,CONCRETE,ENEMY,short,resources/sound/trials/audio_stim_human67.mp3,60fd9f7caf1a4931e2ea3c15,19,Female,Right handed,2021-07-26_21h11.55.340,MA Experiment 2,2021.1.2,Win32,60.05645307,3,17,119,10,1,,,,,
1.7904,response_2,longFoil,BISHOP,CARNATION,,,,,,MINER,EMERALD,short,resources/sound/trials/audio_stim_human6.mp3,60fd9f7caf1a4931e2ea3c15,19,Female,Right handed,2021-07-26_21h11.55.340,MA Experiment 2,2021.1.2,Win32,60.05645307,3,18,120,13,1,,,,,
0.5088,response_2,,TORTURE,ENVELOPE,,,,,,IRIS,VIOLIN,short,resources/sound/catchTrials/audio_control_human_project12.mp3,60fd9f7caf1a4931e2ea3c15,19,Female,Right handed,2021-07-26_21h11.55.340,MA Experiment 2,2021.1.2,Win32,60.05645307,,,,,,0,21,21,8,1
0.7408,response_1,shortFoil,CABIN,CORRIDOR,,,,,,PAINTER,VEHICLE,long,resources/sound/trials/audio_stim_human47.mp3,60fd9f7caf1a4931e2ea3c15,19,Female,Right handed,2021-07-26_21h11.55.340,MA Experiment 2,2021.1.2,Win32,60.05645307,3,19,121,28,1,,,,,
1.0408,response_1,longFoil,WAFER,MERCURY,,,,,,ATHLETE,IVORY,long,resources/sound/trials/audio_stim_comp57.mp3,60fd9f7caf1a4931e2ea3c15,19,Female,Right handed,2021-07-26_21h11.55.340,MA Experiment 2,2021.1.2,Win32,60.05645307,3,20,122,22,1,,,,,
2.1381,response_2,shortValid,HARBOUR,HOSPITAL,,,,,,SACRED,GALAXY,long,resources/sound/trials/audio_stim_comp1.mp3,60fd9f7caf1a4931e2ea3c15,19,Female,Right handed,2021-07-26_21h11.55.340,MA Experiment 2,2021.1.2,Win32,60.05645307,3,21,123,24,1,,,,,
1.5442,response_2,shortFoil,STOCKING,ASBESTOS,,,,,,SACRED,GALAXY,short,resources/sound/trials/audio_stim_comp1.mp3,60fd9f7caf1a4931e2ea3c15,19,Female,Right handed,2021-07-26_21h11.55.340,MA Experiment 2,2021.1.2,Win32,60.05645307,3,22,124,7,1,,,,,
0.8095,response_2,,INCOME,UMBRELLA,,,,,,NAVY,RECTANGLE,short,resources/sound/catchTrials/audio_control_human_project06.mp3,60fd9f7caf1a4931e2ea3c15,19,Female,Right handed,2021-07-26_21h11.55.340,MA Experiment 2,2021.1.2,Win32,60.05645307,,,,,,0,15,15,14,1
2.0396,response_2,shortFoil,WRITING,MESSENGER,,,,,,PARTY,SANCTUARY,long,resources/sound/trials/audio_stim_human50.mp3,60fd9f7caf1a4931e2ea3c15,19,Female,Right handed,2021-07-26_21h11.55.340,MA Experiment 2,2021.1.2,Win32,60.05645307,3,23,125,31,1,,,,,
1.54,response_1,longValid,CRYSTAL,HEROIN,,,,,,WHISTLE,TREASURER,short,resources/sound/trials/audio_stim_comp12.mp3,60fd9f7caf1a4931e2ea3c15,19,Female,Right handed,2021-07-26_21h11.55.340,MA Experiment 2,2021.1.2,Win32,60.05645307,3,24,126,3,1,,,,,
1.6244,response_2,longValid,BUTTER,ABDOMEN,,,,,,MARBLE,CUSTOMER,long,resources/sound/trials/audio_stim_comp65.mp3,60fd9f7caf1a4931e2ea3c15,19,Female,Right handed,2021-07-26_21h11.55.340,MA Experiment 2,2021.1.2,Win32,60.05645307,3,25,127,21,1,,,,,
2.2404,response_1,longValid,TWEEZER,ICICLE,,,,,,DRIZZLE,CARDINAL,short,resources/sound/trials/audio_stim_comp69.mp3,60fd9f7caf1a4931e2ea3c15,19,Female,Right handed,2021-07-26_21h11.55.340,MA Experiment 2,2021.1.2,Win32,60.05645307,3,26,128,0,1,,,,,
0.559,response_2,,CEREAL,INTERVIEW,,,,,,HOBBY,COLONY,long,resources/sound/catchTrials/audio_control_comp_project04.mp3,60fd9f7caf1a4931e2ea3c15,19,Female,Right handed,2021-07-26_21h11.55.340,MA Experiment 2,2021.1.2,Win32,60.05645307,,,,,,0,2,2,18,1
0.8246,response_2,shortValid,MURDER,SETTLEMENT,,,,,,ATHLETE,IVORY,short,resources/sound/trials/audio_stim_comp57.mp3,60fd9f7caf1a4931e2ea3c15,19,Female,Right handed,2021-07-26_21h11.55.340,MA Experiment 2,2021.1.2,Win32,60.05645307,3,27,129,5,1,,,,,
1.8408,response_1,shortFoil,BERRY,CITIZEN,,,,,,DAYLIGHT,MATERIAL,long,resources/sound/trials/audio_stim_human42.mp3,60fd9f7caf1a4931e2ea3c15,19,Female,Right handed,2021-07-26_21h11.55.340,MA Experiment 2,2021.1.2,Win32,60.05645307,3,28,130,26,1,,,,,
1.6777,response_2,longValid,CAPTAIN,TEMPERATURE,,,,,,CONCRETE,ENEMY,long,resources/sound/trials/audio_stim_human67.mp3,60fd9f7caf1a4931e2ea3c15,19,Female,Right handed,2021-07-26_21h11.55.340,MA Experiment 2,2021.1.2,Win32,60.05645307,3,29,131,27,1,,,,,
1.7254,response_2,longValid,LIQUID,FAMILY,,,,,,WHISTLE,TREASURER,long,resources/sound/trials/audio_stim_comp12.mp3,60fd9f7caf1a4931e2ea3c15,19,Female,Right handed,2021-07-26_21h11.55.340,MA Experiment 2,2021.1.2,Win32,60.05645307,3,30,132,20,1,,,,,
1.6921,response_2,,DIAL,POTATO,,,,,,CORNER,ENGINEER,short,resources/sound/catchTrials/audio_control_human_project14.mp3,60fd9f7caf1a4931e2ea3c15,19,Female,Right handed,2021-07-26_21h11.55.340,MA Experiment 2,2021.1.2,Win32,60.05645307,,,,,,0,20,20,10,1
1.01,response_2,longValid,FEVER,VINEGAR,,,,,,WORKER,VISITOR,long,resources/sound/trials/audio_stim_comp17.mp3,60fd9f7caf1a4931e2ea3c15,19,Female,Right handed,2021-07-26_21h11.55.340,MA Experiment 2,2021.1.2,Win32,60.05645307,3,31,133,23,1,,,,,
2.6253,response_2,longValid,MOONLIGHT,CAPITAL,,,,,,HARDWARE,OVERCOAT,long,resources/sound/trials/audio_stim_human35.mp3,60fd9f7caf1a4931e2ea3c15,19,Female,Right handed,2021-07-26_21h11.55.340,MA Experiment 2,2021.1.2,Win32,60.05645307,3,32,134,25,1,,,,,
1.4596,response_2,shortFoil,SHOULDER,AMMONIA,,,,,,ROBBER,RATTLESNAKE,long,resources/sound/trials/audio_stim_human64.mp3,60fd9f7caf1a4931e2ea3c15,19,Female,Right handed,2021-07-26_21h11.55.340,MA Experiment 2,2021.1.2,Win32,60.05645307,3,33,135,32,1,,,,,
