response.time,response,cueTarget,rand_foil_1,rand_foil_2,prac_trials.thisRepN,prac_trials.thisTrialN,prac_trials.thisN,prac_trials.thisIndex,prac_trials.ran,word_1,word_2,cue,file_path,participant,age,gender,handedness,date,expName,psychopyVersion,OS,frameRate,trials.thisRepN,trials.thisTrialN,trials.thisN,trials.thisIndex,trials.ran,catchTrials.thisRepN,catchTrials.thisTrialN,catchTrials.thisN,catchTrials.thisIndex,catchTrials.ran
2.971,response_2,longValid,STOCKING,FURNITURE,0,0,0,8,1,DAGGER,EMPHASIS,long,resources/sound/prac_trials/practice_cue8.mp3,60fd2ef97a195bfbd002ed69,20,Female,Right handed,2021-07-26_20h52.37.088,MA Experiment 2,2021.1.2,Win32,60.3427468,,,,,,,,,,
1.1067,response_2,shortFoil,WINDOW,CANDLELIGHT,0,1,1,9,1,GRUMPY,LABYRINTH,long,resources/sound/prac_trials/practice_cue_human9.mp3,60fd2ef97a195bfbd002ed69,20,Female,Right handed,2021-07-26_20h52.37.088,MA Experiment 2,2021.1.2,Win32,60.3427468,,,,,,,,,,
2.4262,response_1,longValid,HARBOUR,CATHEDRAL,0,2,2,1,1,CABLE,REPUBLIC,short,resources/sound/prac_trials/practice_cue_human1.mp3,60fd2ef97a195bfbd002ed69,20,Female,Right handed,2021-07-26_20h52.37.088,MA Experiment 2,2021.1.2,Win32,60.3427468,,,,,,,,,,
1.5266,response_2,longFoil,VALLEY,GINGERBREAD,0,3,3,3,1,EAGER,QUALIFY,short,resources/sound/prac_trials/practice_cue_human3.mp3,60fd2ef97a195bfbd002ed69,20,Female,Right handed,2021-07-26_20h52.37.088,MA Experiment 2,2021.1.2,Win32,60.3427468,,,,,,,,,,
1.51,response_2,longFoil,HAMSTER,HONEYMOON,0,4,4,4,1,FIZZY,ELECTRIC,short,resources/sound/prac_trials/practice_cue4.mp3,60fd2ef97a195bfbd002ed69,20,Female,Right handed,2021-07-26_20h52.37.088,MA Experiment 2,2021.1.2,Win32,60.3427468,,,,,,,,,,
1.3442,response_2,shortFoil,TRAITOR,GRASSHOPPER,0,5,5,5,1,NONSENSE,OASIS,short,resources/sound/prac_trials/practice_cue_human5.mp3,60fd2ef97a195bfbd002ed69,20,Female,Right handed,2021-07-26_20h52.37.088,MA Experiment 2,2021.1.2,Win32,60.3427468,,,,,,,,,,
1.6932,response_2,shortFoil,VILLAGE,BUTTERFLY,0,6,6,10,1,SAFFRON,JAVELIN,long,resources/sound/prac_trials/practice_cue10.mp3,60fd2ef97a195bfbd002ed69,20,Female,Right handed,2021-07-26_20h52.37.088,MA Experiment 2,2021.1.2,Win32,60.3427468,,,,,,,,,,
1.044,response_2,shortValid,SCOOTER,PHOTOGRAPH,0,7,7,6,1,VACANT,SALVATION,long,resources/sound/prac_trials/practice_cue6.mp3,60fd2ef97a195bfbd002ed69,20,Female,Right handed,2021-07-26_20h52.37.088,MA Experiment 2,2021.1.2,Win32,60.3427468,,,,,,,,,,
1.2266,response_1,shortValid,OFFICE,GORILLA,0,8,8,7,1,BUCKLE,WALLABY,long,resources/sound/prac_trials/practice_cue_human7.mp3,60fd2ef97a195bfbd002ed69,20,Female,Right handed,2021-07-26_20h52.37.088,MA Experiment 2,2021.1.2,Win32,60.3427468,,,,,,,,,,
1.7946,response_2,longValid,CAPTAIN,APPLIANCE,0,9,9,11,1,KETCHUP,GONDOLA,long,resources/sound/prac_trials/practice_cue_human11.mp3,60fd2ef97a195bfbd002ed69,20,Female,Right handed,2021-07-26_20h52.37.088,MA Experiment 2,2021.1.2,Win32,60.3427468,,,,,,,,,,
2.1615,response_1,shortFoil,CURFEW,ADMIRAL,0,10,10,0,1,AARDVARK,FALLACY,short,resources/sound/prac_trials/practice_cue0.mp3,60fd2ef97a195bfbd002ed69,20,Female,Right handed,2021-07-26_20h52.37.088,MA Experiment 2,2021.1.2,Win32,60.3427468,,,,,,,,,,
2.1424,response_2,shortValid,BUTTER,INSTRUCTOR,0,11,11,2,1,RECENT,TOBACCO,short,resources/sound/prac_trials/practice_cue2.mp3,60fd2ef97a195bfbd002ed69,20,Female,Right handed,2021-07-26_20h52.37.088,MA Experiment 2,2021.1.2,Win32,60.3427468,,,,,,,,,,
2.1435,response_1,shortFoil,NEIGHBOUR,TANGERINE,,,,,,PARTY,SANCTUARY,long,resources/sound/trials/audio_stim_human50.mp3,60fd2ef97a195bfbd002ed69,20,Female,Right handed,2021-07-26_20h52.37.088,MA Experiment 2,2021.1.2,Win32,60.3427468,0,0,0,31,1,,,,,
1.2503,response_2,longValid,SOFA,ACROBAT,,,,,,MARBLE,CUSTOMER,short,resources/sound/trials/audio_stim_comp65.mp3,60fd2ef97a195bfbd002ed69,20,Female,Right handed,2021-07-26_20h52.37.088,MA Experiment 2,2021.1.2,Win32,60.3427468,0,1,1,4,1,,,,,
1.2663,response_1,shortValid,JURY,RETAILER,,,,,,MINER,EMERALD,long,resources/sound/trials/audio_stim_comp6.mp3,60fd2ef97a195bfbd002ed69,20,Female,Right handed,2021-07-26_20h52.37.088,MA Experiment 2,2021.1.2,Win32,60.3427468,0,2,2,18,1,,,,,
1.5871,response_2,,WALRUS,BEVERAGE,,,,,,NAVY,RECTANGLE,long,resources/sound/catchTrials/audio_control_human_project06.mp3,60fd2ef97a195bfbd002ed69,20,Female,Right handed,2021-07-26_20h52.37.088,MA Experiment 2,2021.1.2,Win32,60.3427468,,,,,,0,20,20,30,1
1.9103,response_1,shortValid,LEADER,SETTLEMENT,,,,,,HARDWARE,OVERCOAT,long,resources/sound/trials/audio_stim_human35.mp3,60fd2ef97a195bfbd002ed69,20,Female,Right handed,2021-07-26_20h52.37.088,MA Experiment 2,2021.1.2,Win32,60.3427468,0,3,3,25,1,,,,,
1.678,response_1,shortValid,NECKLACE,MOLECULE,,,,,,WORKER,VISITOR,short,resources/sound/trials/audio_stim_comp17.mp3,60fd2ef97a195bfbd002ed69,20,Female,Right handed,2021-07-26_20h52.37.088,MA Experiment 2,2021.1.2,Win32,60.3427468,0,4,4,6,1,,,,,
1.0595,response_1,longFoil,NOVEL,ALCOHOL,,,,,,DAYLIGHT,MATERIAL,long,resources/sound/trials/audio_stim_human42.mp3,60fd2ef97a195bfbd002ed69,20,Female,Right handed,2021-07-26_20h52.37.088,MA Experiment 2,2021.1.2,Win32,60.3427468,0,5,5,26,1,,,,,
1.5106,response_1,shortValid,WAFER,MICROSCOPE,,,,,,WHISTLE,TREASURER,long,resources/sound/trials/audio_stim_comp12.mp3,60fd2ef97a195bfbd002ed69,20,Female,Right handed,2021-07-26_20h52.37.088,MA Experiment 2,2021.1.2,Win32,60.3427468,0,6,6,20,1,,,,,
1.2608,response_2,,BERRY,DESTROYER,,,,,,HOBBY,COLONY,short,resources/sound/catchTrials/audio_control_human_project04.mp3,60fd2ef97a195bfbd002ed69,20,Female,Right handed,2021-07-26_20h52.37.088,MA Experiment 2,2021.1.2,Win32,60.3427468,,,,,,0,26,26,11,1
1.9109,response_1,shortValid,VAPOUR,HEADQUARTERS,,,,,,PAINTER,VEHICLE,long,resources/sound/trials/audio_stim_human47.mp3,60fd2ef97a195bfbd002ed69,20,Female,Right handed,2021-07-26_20h52.37.088,MA Experiment 2,2021.1.2,Win32,60.3427468,0,7,7,28,1,,,,,
2.8939,response_1,longFoil,CHIPMUNK,ANTIQUE,,,,,,RECEIPT,LIMOUSINE,long,resources/sound/trials/audio_stim_comp40.mp3,60fd2ef97a195bfbd002ed69,20,Female,Right handed,2021-07-26_20h52.37.088,MA Experiment 2,2021.1.2,Win32,60.3427468,0,8,8,19,1,,,,,
1.9438,response_2,shortFoil,STATION,INFECTION,,,,,,BRAINSTORM,GREEN NEEDLE,long,resources/sound/trials/audio_stim_original.mp3,60fd2ef97a195bfbd002ed69,20,Female,Right handed,2021-07-26_20h52.37.088,MA Experiment 2,2021.1.2,Win32,60.3427468,0,9,9,33,1,,,,,
1.711,response_2,longFoil,HAMMER,HANDKERCHIEF,,,,,,SACRED,GALAXY,short,resources/sound/trials/audio_stim_comp1.mp3,60fd2ef97a195bfbd002ed69,20,Female,Right handed,2021-07-26_20h52.37.088,MA Experiment 2,2021.1.2,Win32,60.3427468,0,10,10,7,1,,,,,
1.2423,response_2,,CEREAL,CORRIDOR,,,,,,NAVY,RECTANGLE,long,resources/sound/catchTrials/audio_control_comp_project06.mp3,60fd2ef97a195bfbd002ed69,20,Female,Right handed,2021-07-26_20h52.37.088,MA Experiment 2,2021.1.2,Win32,60.3427468,,,,,,0,23,23,22,1
1.8429,response_2,longFoil,SADDLE,HEROIN,,,,,,BRAINSTORM,GREEN NEEDLE,short,resources/sound/trials/audio_stim_original.mp3,60fd2ef97a195bfbd002ed69,20,Female,Right handed,2021-07-26_20h52.37.088,MA Experiment 2,2021.1.2,Win32,60.3427468,0,11,11,16,1,,,,,
1.7279,response_1,longValid,KETTLE,LEMONADE,,,,,,RUBBER,PROPERTY,long,resources/sound/trials/audio_stim_human0.mp3,60fd2ef97a195bfbd002ed69,20,Female,Right handed,2021-07-26_20h52.37.088,MA Experiment 2,2021.1.2,Win32,60.3427468,0,12,12,29,1,,,,,
1.744,response_1,shortFoil,MOONLIGHT,CHOCOLATE,,,,,,MINER,EMERALD,short,resources/sound/trials/audio_stim_human6.mp3,60fd2ef97a195bfbd002ed69,20,Female,Right handed,2021-07-26_20h52.37.088,MA Experiment 2,2021.1.2,Win32,60.3427468,0,13,13,13,1,,,,,
1.4612,response_1,longFoil,SHEEPSKIN,PROJECTOR,,,,,,HARDWARE,OVERCOAT,short,resources/sound/trials/audio_stim_human35.mp3,60fd2ef97a195bfbd002ed69,20,Female,Right handed,2021-07-26_20h52.37.088,MA Experiment 2,2021.1.2,Win32,60.3427468,0,14,14,8,1,,,,,
1.9111,response_2,,RUSTY,CIGARETTE,,,,,,JOURNAL,ROBBERY,long,resources/sound/catchTrials/audio_control_human_project02.mp3,60fd2ef97a195bfbd002ed69,20,Female,Right handed,2021-07-26_20h52.37.088,MA Experiment 2,2021.1.2,Win32,60.3427468,,,,,,0,21,21,29,1
2.0606,response_1,longFoil,PIPING,ENVELOPE,,,,,,PAINTER,VEHICLE,short,resources/sound/trials/audio_stim_human47.mp3,60fd2ef97a195bfbd002ed69,20,Female,Right handed,2021-07-26_20h52.37.088,MA Experiment 2,2021.1.2,Win32,60.3427468,0,15,15,11,1,,,,,
1.3942,response_1,shortFoil,UNCLE,INJURY,,,,,,MINER,EMERALD,short,resources/sound/trials/audio_stim_comp6.mp3,60fd2ef97a195bfbd002ed69,20,Female,Right handed,2021-07-26_20h52.37.088,MA Experiment 2,2021.1.2,Win32,60.3427468,0,16,16,1,1,,,,,
2.4438,response_1,shortFoil,SULPHUR,FIREWOOD,,,,,,DRIZZLE,CARDINAL,short,resources/sound/trials/audio_stim_comp69.mp3,60fd2ef97a195bfbd002ed69,20,Female,Right handed,2021-07-26_20h52.37.088,MA Experiment 2,2021.1.2,Win32,60.3427468,0,17,17,0,1,,,,,
1.8442,response_2,shortValid,LOBSTER,OXYGEN,,,,,,RUBBER,PROPERTY,short,resources/sound/trials/audio_stim_human0.mp3,60fd2ef97a195bfbd002ed69,20,Female,Right handed,2021-07-26_20h52.37.088,MA Experiment 2,2021.1.2,Win32,60.3427468,0,18,18,12,1,,,,,
1.0272,response_2,,MEASLES,FISHERMAN,,,,,,BORDER,ALGEBRA,short,resources/sound/catchTrials/audio_control_comp_project00.mp3,60fd2ef97a195bfbd002ed69,20,Female,Right handed,2021-07-26_20h52.37.088,MA Experiment 2,2021.1.2,Win32,60.3427468,,,,,,0,13,13,0,1
1.2098,response_2,longFoil,KERNEL,CAMERA,,,,,,MINER,EMERALD,long,resources/sound/trials/audio_stim_human6.mp3,60fd2ef97a195bfbd002ed69,20,Female,Right handed,2021-07-26_20h52.37.088,MA Experiment 2,2021.1.2,Win32,60.3427468,0,19,19,30,1,,,,,
0.9754,response_1,longFoil,NATIVE,FACTORY,,,,,,DRIZZLE,CARDINAL,long,resources/sound/trials/audio_stim_comp69.mp3,60fd2ef97a195bfbd002ed69,20,Female,Right handed,2021-07-26_20h52.37.088,MA Experiment 2,2021.1.2,Win32,60.3427468,0,20,20,17,1,,,,,
2.5111,response_2,longFoil,MURAL,POLICEMAN,,,,,,SACRED,GALAXY,long,resources/sound/trials/audio_stim_comp1.mp3,60fd2ef97a195bfbd002ed69,20,Female,Right handed,2021-07-26_20h52.37.088,MA Experiment 2,2021.1.2,Win32,60.3427468,0,21,21,24,1,,,,,
3.6104,,shortFoil,VESSEL,CINNAMON,,,,,,ATHLETE,IVORY,short,resources/sound/trials/audio_stim_comp57.mp3,60fd2ef97a195bfbd002ed69,20,Female,Right handed,2021-07-26_20h52.37.088,MA Experiment 2,2021.1.2,Win32,60.3427468,0,22,22,5,1,,,,,
1.2097,response_1,,TEMPLE,MEDICINE,,,,,,VIOLET,LUBRICANT,long,resources/sound/catchTrials/audio_control_comp_project07.mp3,60fd2ef97a195bfbd002ed69,20,Female,Right handed,2021-07-26_20h52.37.088,MA Experiment 2,2021.1.2,Win32,60.3427468,,,,,,0,31,31,19,1
1.5598,response_1,longValid,DIAL,AVENUE,,,,,,RECEIPT,LIMOUSINE,short,resources/sound/trials/audio_stim_comp40.mp3,60fd2ef97a195bfbd002ed69,20,Female,Right handed,2021-07-26_20h52.37.088,MA Experiment 2,2021.1.2,Win32,60.3427468,0,23,23,2,1,,,,,
1.2933,response_2,shortFoil,NAPKIN,MONUMENT,,,,,,ROBBER,RATTLESNAKE,long,resources/sound/trials/audio_stim_human64.mp3,60fd2ef97a195bfbd002ed69,20,Female,Right handed,2021-07-26_20h52.37.088,MA Experiment 2,2021.1.2,Win32,60.3427468,0,24,24,32,1,,,,,
3.1609,response_2,longFoil,MEDICINE,STRAWBERRY,,,,,,CONCRETE,ENEMY,long,resources/sound/trials/audio_stim_human67.mp3,60fd2ef97a195bfbd002ed69,20,Female,Right handed,2021-07-26_20h52.37.088,MA Experiment 2,2021.1.2,Win32,60.3427468,0,25,25,27,1,,,,,
2.1275,response_2,longValid,GIRDLE,TEMPERATURE,,,,,,DAYLIGHT,MATERIAL,short,resources/sound/trials/audio_stim_human42.mp3,60fd2ef97a195bfbd002ed69,20,Female,Right handed,2021-07-26_20h52.37.088,MA Experiment 2,2021.1.2,Win32,60.3427468,0,26,26,9,1,,,,,
1.0444,response_2,,EVENING,CROCODILE,,,,,,CORNER,ENGINEER,long,resources/sound/catchTrials/audio_control_human_project14.mp3,60fd2ef97a195bfbd002ed69,20,Female,Right handed,2021-07-26_20h52.37.088,MA Experiment 2,2021.1.2,Win32,60.3427468,,,,,,0,24,24,26,1
1.1276,response_2,longFoil,SODA,ORNAMENT,,,,,,ROBBER,RATTLESNAKE,short,resources/sound/trials/audio_stim_human64.mp3,60fd2ef97a195bfbd002ed69,20,Female,Right handed,2021-07-26_20h52.37.088,MA Experiment 2,2021.1.2,Win32,60.3427468,0,27,27,15,1,,,,,
1.9275,response_1,shortValid,PATIENT,GOVERNMENT,,,,,,ATHLETE,IVORY,long,resources/sound/trials/audio_stim_comp57.mp3,60fd2ef97a195bfbd002ed69,20,Female,Right handed,2021-07-26_20h52.37.088,MA Experiment 2,2021.1.2,Win32,60.3427468,0,28,28,22,1,,,,,
1.844,response_2,shortValid,WRITING,EMULSION,,,,,,PARTY,SANCTUARY,short,resources/sound/trials/audio_stim_human50.mp3,60fd2ef97a195bfbd002ed69,20,Female,Right handed,2021-07-26_20h52.37.088,MA Experiment 2,2021.1.2,Win32,60.3427468,0,29,29,14,1,,,,,
1.7103,response_1,longValid,DANCER,CONVENTION,,,,,,CONCRETE,ENEMY,short,resources/sound/trials/audio_stim_human67.mp3,60fd2ef97a195bfbd002ed69,20,Female,Right handed,2021-07-26_20h52.37.088,MA Experiment 2,2021.1.2,Win32,60.3427468,0,30,30,10,1,,,,,
1.0937,response_2,,CABIN,OPENING,,,,,,IRIS,VIOLIN,short,resources/sound/catchTrials/audio_control_comp_project12.mp3,60fd2ef97a195bfbd002ed69,20,Female,Right handed,2021-07-26_20h52.37.088,MA Experiment 2,2021.1.2,Win32,60.3427468,,,,,,0,22,22,4,1
1.1606,response_1,longValid,CIGAR,UMBRELLA,,,,,,WHISTLE,TREASURER,short,resources/sound/trials/audio_stim_comp12.mp3,60fd2ef97a195bfbd002ed69,20,Female,Right handed,2021-07-26_20h52.37.088,MA Experiment 2,2021.1.2,Win32,60.3427468,0,31,31,3,1,,,,,
1.5937,response_2,shortFoil,FOREARM,CITIZEN,,,,,,WORKER,VISITOR,long,resources/sound/trials/audio_stim_comp17.mp3,60fd2ef97a195bfbd002ed69,20,Female,Right handed,2021-07-26_20h52.37.088,MA Experiment 2,2021.1.2,Win32,60.3427468,0,32,32,23,1,,,,,
1.5935,response_2,longValid,DWELLER,HOSPITAL,,,,,,MARBLE,CUSTOMER,long,resources/sound/trials/audio_stim_comp65.mp3,60fd2ef97a195bfbd002ed69,20,Female,Right handed,2021-07-26_20h52.37.088,MA Experiment 2,2021.1.2,Win32,60.3427468,0,33,33,21,1,,,,,
1.1443,response_2,shortFoil,FERTILE,ENAMEL,,,,,,ROBBER,RATTLESNAKE,short,resources/sound/trials/audio_stim_human64.mp3,60fd2ef97a195bfbd002ed69,20,Female,Right handed,2021-07-26_20h52.37.088,MA Experiment 2,2021.1.2,Win32,60.3427468,1,0,34,15,1,,,,,
0.9765,response_1,longValid,FATHER,SPECIALIST,,,,,,DRIZZLE,CARDINAL,long,resources/sound/trials/audio_stim_comp69.mp3,60fd2ef97a195bfbd002ed69,20,Female,Right handed,2021-07-26_20h52.37.088,MA Experiment 2,2021.1.2,Win32,60.3427468,1,1,35,17,1,,,,,
1.4797,response_2,longValid,BISHOP,CABINET,,,,,,DRIZZLE,CARDINAL,short,resources/sound/trials/audio_stim_comp69.mp3,60fd2ef97a195bfbd002ed69,20,Female,Right handed,2021-07-26_20h52.37.088,MA Experiment 2,2021.1.2,Win32,60.3427468,1,2,36,0,1,,,,,
1.9111,response_1,,LIQUID,CAPITAL,,,,,,POISON,REVOLVER,long,resources/sound/catchTrials/audio_control_human_project01.mp3,60fd2ef97a195bfbd002ed69,20,Female,Right handed,2021-07-26_20h52.37.088,MA Experiment 2,2021.1.2,Win32,60.3427468,,,,,,0,27,27,25,1
1.1779,response_2,longValid,BEETLE,DISSECTION,,,,,,SACRED,GALAXY,short,resources/sound/trials/audio_stim_comp1.mp3,60fd2ef97a195bfbd002ed69,20,Female,Right handed,2021-07-26_20h52.37.088,MA Experiment 2,2021.1.2,Win32,60.3427468,1,3,37,7,1,,,,,
0.9782,response_2,shortValid,FEVER,AMMONIA,,,,,,CONCRETE,ENEMY,short,resources/sound/trials/audio_stim_human67.mp3,60fd2ef97a195bfbd002ed69,20,Female,Right handed,2021-07-26_20h52.37.088,MA Experiment 2,2021.1.2,Win32,60.3427468,1,4,38,10,1,,,,,
1.6609,response_1,longFoil,ANCHOR,COMMITTEE,,,,,,MINER,EMERALD,short,resources/sound/trials/audio_stim_human6.mp3,60fd2ef97a195bfbd002ed69,20,Female,Right handed,2021-07-26_20h52.37.088,MA Experiment 2,2021.1.2,Win32,60.3427468,1,5,39,13,1,,,,,
1.0609,response_1,longFoil,ACRE,DIAMOND,,,,,,HARDWARE,OVERCOAT,long,resources/sound/trials/audio_stim_human35.mp3,60fd2ef97a195bfbd002ed69,20,Female,Right handed,2021-07-26_20h52.37.088,MA Experiment 2,2021.1.2,Win32,60.3427468,1,6,40,25,1,,,,,
1.2436,response_1,,MURDER,ATTENDANT,,,,,,VIOLET,LUBRICANT,short,resources/sound/catchTrials/audio_control_comp_project07.mp3,60fd2ef97a195bfbd002ed69,20,Female,Right handed,2021-07-26_20h52.37.088,MA Experiment 2,2021.1.2,Win32,60.3427468,,,,,,0,3,3,3,1
2.9107,response_1,longFoil,POLO,GALLERY,,,,,,RECEIPT,LIMOUSINE,short,resources/sound/trials/audio_stim_comp40.mp3,60fd2ef97a195bfbd002ed69,20,Female,Right handed,2021-07-26_20h52.37.088,MA Experiment 2,2021.1.2,Win32,60.3427468,1,7,41,2,1,,,,,
1.226,response_1,longValid,DOORWAY,CARNATION,,,,,,PAINTER,VEHICLE,short,resources/sound/trials/audio_stim_human47.mp3,60fd2ef97a195bfbd002ed69,20,Female,Right handed,2021-07-26_20h52.37.088,MA Experiment 2,2021.1.2,Win32,60.3427468,1,8,42,11,1,,,,,
1.4775,response_1,longValid,CRYSTAL,MERCURY,,,,,,HARDWARE,OVERCOAT,short,resources/sound/trials/audio_stim_human35.mp3,60fd2ef97a195bfbd002ed69,20,Female,Right handed,2021-07-26_20h52.37.088,MA Experiment 2,2021.1.2,Win32,60.3427468,1,9,43,8,1,,,,,
1.961,response_2,shortFoil,OLIVE,JANITOR,,,,,,RECEIPT,LIMOUSINE,long,resources/sound/trials/audio_stim_comp40.mp3,60fd2ef97a195bfbd002ed69,20,Female,Right handed,2021-07-26_20h52.37.088,MA Experiment 2,2021.1.2,Win32,60.3427468,1,10,44,19,1,,,,,
1.1606,response_2,,MORNING,POTATO,,,,,,ICY,JITTERBUG,long,resources/sound/catchTrials/audio_control_comp_project08.mp3,60fd2ef97a195bfbd002ed69,20,Female,Right handed,2021-07-26_20h52.37.088,MA Experiment 2,2021.1.2,Win32,60.3427468,,,,,,0,2,2,23,1
0.9438,response_2,longFoil,PIANO,MECHANIC,,,,,,WORKER,VISITOR,short,resources/sound/trials/audio_stim_comp17.mp3,60fd2ef97a195bfbd002ed69,20,Female,Right handed,2021-07-26_20h52.37.088,MA Experiment 2,2021.1.2,Win32,60.3427468,1,11,45,6,1,,,,,
1.7773,response_1,shortValid,CANTEEN,GYMNASTICS,,,,,,BRAINSTORM,GREEN NEEDLE,long,resources/sound/trials/audio_stim_original.mp3,60fd2ef97a195bfbd002ed69,20,Female,Right handed,2021-07-26_20h52.37.088,MA Experiment 2,2021.1.2,Win32,60.3427468,1,12,46,33,1,,,,,
1.9103,response_2,longFoil,KENNEL,AMBULANCE,,,,,,MINER,EMERALD,short,resources/sound/trials/audio_stim_comp6.mp3,60fd2ef97a195bfbd002ed69,20,Female,Right handed,2021-07-26_20h52.37.088,MA Experiment 2,2021.1.2,Win32,60.3427468,1,13,47,1,1,,,,,
1.7104,response_2,longFoil,MUSCLE,ATHLETICS,,,,,,WORKER,VISITOR,long,resources/sound/trials/audio_stim_comp17.mp3,60fd2ef97a195bfbd002ed69,20,Female,Right handed,2021-07-26_20h52.37.088,MA Experiment 2,2021.1.2,Win32,60.3427468,1,14,48,23,1,,,,,
1.3113,response_2,,TWEEZER,SAXOPHONE,,,,,,CORNER,ENGINEER,long,resources/sound/catchTrials/audio_control_comp_project14.mp3,60fd2ef97a195bfbd002ed69,20,Female,Right handed,2021-07-26_20h52.37.088,MA Experiment 2,2021.1.2,Win32,60.3427468,,,,,,0,0,0,17,1
1.6101,response_1,longFoil,TORTURE,ABDOMEN,,,,,,WHISTLE,TREASURER,short,resources/sound/trials/audio_stim_comp12.mp3,60fd2ef97a195bfbd002ed69,20,Female,Right handed,2021-07-26_20h52.37.088,MA Experiment 2,2021.1.2,Win32,60.3427468,1,15,49,3,1,,,,,
1.1428,response_2,longValid,HURDLE,ALPHABET,,,,,,CONCRETE,ENEMY,long,resources/sound/trials/audio_stim_human67.mp3,60fd2ef97a195bfbd002ed69,20,Female,Right handed,2021-07-26_20h52.37.088,MA Experiment 2,2021.1.2,Win32,60.3427468,1,16,50,27,1,,,,,
2.4427,response_1,longValid,INVOICE,ICICLE,,,,,,PARTY,SANCTUARY,short,resources/sound/trials/audio_stim_human50.mp3,60fd2ef97a195bfbd002ed69,20,Female,Right handed,2021-07-26_20h52.37.088,MA Experiment 2,2021.1.2,Win32,60.3427468,1,17,51,14,1,,,,,
2.0606,response_2,shortFoil,WIRE,MOSQUITO,,,,,,SACRED,GALAXY,long,resources/sound/trials/audio_stim_comp1.mp3,60fd2ef97a195bfbd002ed69,20,Female,Right handed,2021-07-26_20h52.37.088,MA Experiment 2,2021.1.2,Win32,60.3427468,1,18,52,24,1,,,,,
1.4113,response_2,,PICTURE,NEIGHBOURHOOD,,,,,,CORNER,ENGINEER,short,resources/sound/catchTrials/audio_control_human_project14.mp3,60fd2ef97a195bfbd002ed69,20,Female,Right handed,2021-07-26_20h52.37.088,MA Experiment 2,2021.1.2,Win32,60.3427468,,,,,,0,1,1,10,1
1.5772,response_1,shortFoil,DUEL,INSTRUMENT,,,,,,MINER,EMERALD,long,resources/sound/trials/audio_stim_human6.mp3,60fd2ef97a195bfbd002ed69,20,Female,Right handed,2021-07-26_20h52.37.088,MA Experiment 2,2021.1.2,Win32,60.3427468,1,19,53,30,1,,,,,
1.0434,response_1,longFoil,NURSERY,PHYSICIAN,,,,,,RUBBER,PROPERTY,long,resources/sound/trials/audio_stim_human0.mp3,60fd2ef97a195bfbd002ed69,20,Female,Right handed,2021-07-26_20h52.37.088,MA Experiment 2,2021.1.2,Win32,60.3427468,1,20,54,29,1,,,,,
1.8334,response_1,longValid,SINGER,NEWSPAPER,,,,,,RUBBER,PROPERTY,short,resources/sound/trials/audio_stim_human0.mp3,60fd2ef97a195bfbd002ed69,20,Female,Right handed,2021-07-26_20h52.37.088,MA Experiment 2,2021.1.2,Win32,60.3427468,1,21,55,12,1,,,,,
2.1266,response_1,longFoil,PRINCESS,PROPELLER,,,,,,PAINTER,VEHICLE,long,resources/sound/trials/audio_stim_human47.mp3,60fd2ef97a195bfbd002ed69,20,Female,Right handed,2021-07-26_20h52.37.088,MA Experiment 2,2021.1.2,Win32,60.3427468,1,22,56,28,1,,,,,
1.461,response_1,,DIVING,ASBESTOS,,,,,,VIOLET,LUBRICANT,long,resources/sound/catchTrials/audio_control_human_project07.mp3,60fd2ef97a195bfbd002ed69,20,Female,Right handed,2021-07-26_20h52.37.088,MA Experiment 2,2021.1.2,Win32,60.3427468,,,,,,0,8,8,28,1
1.8602,response_1,longFoil,LIGHTNING,CLARINET,,,,,,MINER,EMERALD,long,resources/sound/trials/audio_stim_comp6.mp3,60fd2ef97a195bfbd002ed69,20,Female,Right handed,2021-07-26_20h52.37.088,MA Experiment 2,2021.1.2,Win32,60.3427468,1,23,57,18,1,,,,,
0.9597,response_1,shortValid,FAIRY,MINERAL,,,,,,DAYLIGHT,MATERIAL,long,resources/sound/trials/audio_stim_human42.mp3,60fd2ef97a195bfbd002ed69,20,Female,Right handed,2021-07-26_20h52.37.088,MA Experiment 2,2021.1.2,Win32,60.3427468,1,24,58,26,1,,,,,
1.3934,response_2,longFoil,PERSON,INTERVIEW,,,,,,MARBLE,CUSTOMER,short,resources/sound/trials/audio_stim_comp65.mp3,60fd2ef97a195bfbd002ed69,20,Female,Right handed,2021-07-26_20h52.37.088,MA Experiment 2,2021.1.2,Win32,60.3427468,1,25,59,4,1,,,,,
0.8928,response_1,longFoil,GRADUATE,HURRICANE,,,,,,DAYLIGHT,MATERIAL,short,resources/sound/trials/audio_stim_human42.mp3,60fd2ef97a195bfbd002ed69,20,Female,Right handed,2021-07-26_20h52.37.088,MA Experiment 2,2021.1.2,Win32,60.3427468,1,26,60,9,1,,,,,
1.276,response_2,,INCOME,FAMILY,,,,,,NAVY,RECTANGLE,short,resources/sound/catchTrials/audio_control_comp_project06.mp3,60fd2ef97a195bfbd002ed69,20,Female,Right handed,2021-07-26_20h52.37.088,MA Experiment 2,2021.1.2,Win32,60.3427468,,,,,,0,4,4,6,1
1.1434,response_2,shortValid,RABBI,VINEGAR,,,,,,ROBBER,RATTLESNAKE,long,resources/sound/trials/audio_stim_human64.mp3,60fd2ef97a195bfbd002ed69,20,Female,Right handed,2021-07-26_20h52.37.088,MA Experiment 2,2021.1.2,Win32,60.3427468,1,27,61,32,1,,,,,
1.4608,response_1,longValid,BURNER,PROFESSOR,,,,,,WHISTLE,TREASURER,long,resources/sound/trials/audio_stim_comp12.mp3,60fd2ef97a195bfbd002ed69,20,Female,Right handed,2021-07-26_20h52.37.088,MA Experiment 2,2021.1.2,Win32,60.3427468,1,28,62,20,1,,,,,
1.2098,response_1,shortFoil,TUMBLE,POLIO,,,,,,ATHLETE,IVORY,long,resources/sound/trials/audio_stim_comp57.mp3,60fd2ef97a195bfbd002ed69,20,Female,Right handed,2021-07-26_20h52.37.088,MA Experiment 2,2021.1.2,Win32,60.3427468,1,29,63,22,1,,,,,
1.3383,response_2,shortFoil,DECOY,LECTURER,,,,,,MARBLE,CUSTOMER,long,resources/sound/trials/audio_stim_comp65.mp3,60fd2ef97a195bfbd002ed69,20,Female,Right handed,2021-07-26_20h52.37.088,MA Experiment 2,2021.1.2,Win32,60.3427468,1,30,64,21,1,,,,,
1.4261,response_2,,EARTHWORM,MESSENGER,,,,,,NAVY,RECTANGLE,short,resources/sound/catchTrials/audio_control_human_project06.mp3,60fd2ef97a195bfbd002ed69,20,Female,Right handed,2021-07-26_20h52.37.088,MA Experiment 2,2021.1.2,Win32,60.3427468,,,,,,0,15,15,14,1
1.3096,response_2,shortFoil,SHOULDER,INDUSTRY,,,,,,BRAINSTORM,GREEN NEEDLE,short,resources/sound/trials/audio_stim_original.mp3,60fd2ef97a195bfbd002ed69,20,Female,Right handed,2021-07-26_20h52.37.088,MA Experiment 2,2021.1.2,Win32,60.3427468,1,31,65,16,1,,,,,
1.5581,response_1,longFoil,SEGMENT,INSTITUTE,,,,,,ATHLETE,IVORY,short,resources/sound/trials/audio_stim_comp57.mp3,60fd2ef97a195bfbd002ed69,20,Female,Right handed,2021-07-26_20h52.37.088,MA Experiment 2,2021.1.2,Win32,60.3427468,1,32,66,5,1,,,,,
1.2106,response_2,longValid,MISTRESS,MINISTER,,,,,,PARTY,SANCTUARY,long,resources/sound/trials/audio_stim_human50.mp3,60fd2ef97a195bfbd002ed69,20,Female,Right handed,2021-07-26_20h52.37.088,MA Experiment 2,2021.1.2,Win32,60.3427468,1,33,67,31,1,,,,,
1.3594,response_2,longValid,PODIUM,REFEREE,,,,,,BRAINSTORM,GREEN NEEDLE,long,resources/sound/trials/audio_stim_original.mp3,60fd2ef97a195bfbd002ed69,20,Female,Right handed,2021-07-26_20h52.37.088,MA Experiment 2,2021.1.2,Win32,60.3427468,2,0,68,33,1,,,,,
1.2605,response_2,longFoil,ACRE,ANTIQUE,,,,,,RUBBER,PROPERTY,short,resources/sound/trials/audio_stim_human0.mp3,60fd2ef97a195bfbd002ed69,20,Female,Right handed,2021-07-26_20h52.37.088,MA Experiment 2,2021.1.2,Win32,60.3427468,2,1,69,12,1,,,,,
1.3599,response_1,longValid,CANTEEN,FAMILY,,,,,,MINER,EMERALD,long,resources/sound/trials/audio_stim_comp6.mp3,60fd2ef97a195bfbd002ed69,20,Female,Right handed,2021-07-26_20h52.37.088,MA Experiment 2,2021.1.2,Win32,60.3427468,2,2,70,18,1,,,,,
0.8099,response_2,,VILLAGE,INTERVIEW,,,,,,IRIS,VIOLIN,long,resources/sound/catchTrials/audio_control_human_project12.mp3,60fd2ef97a195bfbd002ed69,20,Female,Right handed,2021-07-26_20h52.37.088,MA Experiment 2,2021.1.2,Win32,60.3427468,,,,,,0,16,16,24,1
0.9434,response_2,longValid,LIQUID,GOVERNMENT,,,,,,WORKER,VISITOR,short,resources/sound/trials/audio_stim_comp17.mp3,60fd2ef97a195bfbd002ed69,20,Female,Right handed,2021-07-26_20h52.37.088,MA Experiment 2,2021.1.2,Win32,60.3427468,2,3,71,6,1,,,,,
1.8773,response_1,longFoil,DWELLER,MERCURY,,,,,,WHISTLE,TREASURER,long,resources/sound/trials/audio_stim_comp12.mp3,60fd2ef97a195bfbd002ed69,20,Female,Right handed,2021-07-26_20h52.37.088,MA Experiment 2,2021.1.2,Win32,60.3427468,2,4,72,20,1,,,,,
1.2769,response_1,longValid,VALLEY,HANDKERCHIEF,,,,,,MINER,EMERALD,short,resources/sound/trials/audio_stim_comp6.mp3,60fd2ef97a195bfbd002ed69,20,Female,Right handed,2021-07-26_20h52.37.088,MA Experiment 2,2021.1.2,Win32,60.3427468,2,5,73,1,1,,,,,
1.9974,response_1,longValid,BISHOP,JANITOR,,,,,,ATHLETE,IVORY,long,resources/sound/trials/audio_stim_comp57.mp3,60fd2ef97a195bfbd002ed69,20,Female,Right handed,2021-07-26_20h52.37.088,MA Experiment 2,2021.1.2,Win32,60.3427468,2,6,74,22,1,,,,,
1.5438,response_2,,LOBSTER,ABDOMEN,,,,,,BORDER,ALGEBRA,long,resources/sound/catchTrials/audio_control_comp_project00.mp3,60fd2ef97a195bfbd002ed69,20,Female,Right handed,2021-07-26_20h52.37.088,MA Experiment 2,2021.1.2,Win32,60.3427468,,,,,,0,30,30,16,1
1.2934,response_1,shortFoil,GIRDLE,SETTLEMENT,,,,,,HARDWARE,OVERCOAT,long,resources/sound/trials/audio_stim_human35.mp3,60fd2ef97a195bfbd002ed69,20,Female,Right handed,2021-07-26_20h52.37.088,MA Experiment 2,2021.1.2,Win32,60.3427468,2,7,75,25,1,,,,,
0.9274,response_1,shortValid,SCOOTER,INFECTION,,,,,,SACRED,GALAXY,short,resources/sound/trials/audio_stim_comp1.mp3,60fd2ef97a195bfbd002ed69,20,Female,Right handed,2021-07-26_20h52.37.088,MA Experiment 2,2021.1.2,Win32,60.3427468,2,8,76,7,1,,,,,
1.4765,response_1,longValid,LEADER,CROCODILE,,,,,,ATHLETE,IVORY,short,resources/sound/trials/audio_stim_comp57.mp3,60fd2ef97a195bfbd002ed69,20,Female,Right handed,2021-07-26_20h52.37.088,MA Experiment 2,2021.1.2,Win32,60.3427468,2,9,77,5,1,,,,,
2.0601,response_1,shortValid,CEREAL,GALLERY,,,,,,PARTY,SANCTUARY,long,resources/sound/trials/audio_stim_human50.mp3,60fd2ef97a195bfbd002ed69,20,Female,Right handed,2021-07-26_20h52.37.088,MA Experiment 2,2021.1.2,Win32,60.3427468,2,10,78,31,1,,,,,
1.4602,response_2,,KERNEL,ATTENDANT,,,,,,JOURNAL,ROBBERY,short,resources/sound/catchTrials/audio_control_human_project02.mp3,60fd2ef97a195bfbd002ed69,20,Female,Right handed,2021-07-26_20h52.37.088,MA Experiment 2,2021.1.2,Win32,60.3427468,,,,,,0,28,28,13,1
1.3438,response_2,longValid,KENNEL,CANDLELIGHT,,,,,,WORKER,VISITOR,long,resources/sound/trials/audio_stim_comp17.mp3,60fd2ef97a195bfbd002ed69,20,Female,Right handed,2021-07-26_20h52.37.088,MA Experiment 2,2021.1.2,Win32,60.3427468,2,11,79,23,1,,,,,
1.6931,response_1,shortValid,STOCKING,MESSENGER,,,,,,DRIZZLE,CARDINAL,long,resources/sound/trials/audio_stim_comp69.mp3,60fd2ef97a195bfbd002ed69,20,Female,Right handed,2021-07-26_20h52.37.088,MA Experiment 2,2021.1.2,Win32,60.3427468,2,12,80,17,1,,,,,
2.6107,response_1,shortValid,RABBI,HOSPITAL,,,,,,BRAINSTORM,GREEN NEEDLE,short,resources/sound/trials/audio_stim_original.mp3,60fd2ef97a195bfbd002ed69,20,Female,Right handed,2021-07-26_20h52.37.088,MA Experiment 2,2021.1.2,Win32,60.3427468,2,13,81,16,1,,,,,
1.1773,response_2,shortValid,SINGER,ALPHABET,,,,,,HARDWARE,OVERCOAT,short,resources/sound/trials/audio_stim_human35.mp3,60fd2ef97a195bfbd002ed69,20,Female,Right handed,2021-07-26_20h52.37.088,MA Experiment 2,2021.1.2,Win32,60.3427468,2,14,82,8,1,,,,,
1.2269,response_2,,PERSON,PHYSICIAN,,,,,,SPINACH,APRICOT,short,resources/sound/catchTrials/audio_control_comp_project18.mp3,60fd2ef97a195bfbd002ed69,20,Female,Right handed,2021-07-26_20h52.37.088,MA Experiment 2,2021.1.2,Win32,60.3427468,,,,,,0,6,6,5,1
1.4266,response_2,longFoil,VESSEL,POLICEMAN,,,,,,ROBBER,RATTLESNAKE,long,resources/sound/trials/audio_stim_human64.mp3,60fd2ef97a195bfbd002ed69,20,Female,Right handed,2021-07-26_20h52.37.088,MA Experiment 2,2021.1.2,Win32,60.3427468,2,15,83,32,1,,,,,
1.5438,response_2,shortValid,NEIGHBOUR,INSTRUMENT,,,,,,MINER,EMERALD,short,resources/sound/trials/audio_stim_human6.mp3,60fd2ef97a195bfbd002ed69,20,Female,Right handed,2021-07-26_20h52.37.088,MA Experiment 2,2021.1.2,Win32,60.3427468,2,16,84,13,1,,,,,
1.7097,response_2,shortFoil,NURSERY,PROJECTOR,,,,,,DAYLIGHT,MATERIAL,short,resources/sound/trials/audio_stim_human42.mp3,60fd2ef97a195bfbd002ed69,20,Female,Right handed,2021-07-26_20h52.37.088,MA Experiment 2,2021.1.2,Win32,60.3427468,2,17,85,9,1,,,,,
1.1605,response_2,longValid,DIVING,PROFESSOR,,,,,,ROBBER,RATTLESNAKE,short,resources/sound/trials/audio_stim_human64.mp3,60fd2ef97a195bfbd002ed69,20,Female,Right handed,2021-07-26_20h52.37.088,MA Experiment 2,2021.1.2,Win32,60.3427468,2,18,86,15,1,,,,,
1.1605,response_1,,PICTURE,CONVENTION,,,,,,VIOLET,LUBRICANT,short,resources/sound/catchTrials/audio_control_human_project07.mp3,60fd2ef97a195bfbd002ed69,20,Female,Right handed,2021-07-26_20h52.37.088,MA Experiment 2,2021.1.2,Win32,60.3427468,,,,,,0,12,12,12,1
1.3935,response_2,longFoil,INVOICE,CINNAMON,,,,,,MARBLE,CUSTOMER,long,resources/sound/trials/audio_stim_comp65.mp3,60fd2ef97a195bfbd002ed69,20,Female,Right handed,2021-07-26_20h52.37.088,MA Experiment 2,2021.1.2,Win32,60.3427468,2,19,87,21,1,,,,,
1.0935,response_1,longValid,CABIN,DISSECTION,,,,,,MINER,EMERALD,long,resources/sound/trials/audio_stim_human6.mp3,60fd2ef97a195bfbd002ed69,20,Female,Right handed,2021-07-26_20h52.37.088,MA Experiment 2,2021.1.2,Win32,60.3427468,2,20,88,30,1,,,,,
1.3605,response_2,shortValid,MURAL,TANGERINE,,,,,,CONCRETE,ENEMY,long,resources/sound/trials/audio_stim_human67.mp3,60fd2ef97a195bfbd002ed69,20,Female,Right handed,2021-07-26_20h52.37.088,MA Experiment 2,2021.1.2,Win32,60.3427468,2,21,89,27,1,,,,,
1.0463,response_2,longFoil,TORTURE,ORNAMENT,,,,,,CONCRETE,ENEMY,short,resources/sound/trials/audio_stim_human67.mp3,60fd2ef97a195bfbd002ed69,20,Female,Right handed,2021-07-26_20h52.37.088,MA Experiment 2,2021.1.2,Win32,60.3427468,2,22,90,10,1,,,,,
1.1429,response_1,,VAPOUR,CITIZEN,,,,,,JUGGLER,DANDELION,short,resources/sound/catchTrials/audio_control_human_project09.mp3,60fd2ef97a195bfbd002ed69,20,Female,Right handed,2021-07-26_20h52.37.088,MA Experiment 2,2021.1.2,Win32,60.3427468,,,,,,0,7,7,15,1
0.9935,response_2,shortFoil,SADDLE,FIREWOOD,,,,,,PAINTER,VEHICLE,short,resources/sound/trials/audio_stim_human47.mp3,60fd2ef97a195bfbd002ed69,20,Female,Right handed,2021-07-26_20h52.37.088,MA Experiment 2,2021.1.2,Win32,60.3427468,2,23,91,11,1,,,,,
1.1439,response_2,longValid,FEVER,HONEYMOON,,,,,,SACRED,GALAXY,long,resources/sound/trials/audio_stim_comp1.mp3,60fd2ef97a195bfbd002ed69,20,Female,Right handed,2021-07-26_20h52.37.088,MA Experiment 2,2021.1.2,Win32,60.3427468,2,24,92,24,1,,,,,
1.1605,response_2,shortValid,NATIVE,RETAILER,,,,,,MARBLE,CUSTOMER,short,resources/sound/trials/audio_stim_comp65.mp3,60fd2ef97a195bfbd002ed69,20,Female,Right handed,2021-07-26_20h52.37.088,MA Experiment 2,2021.1.2,Win32,60.3427468,2,25,93,4,1,,,,,
0.8436,response_2,shortFoil,PODIUM,FISHERMAN,,,,,,PARTY,SANCTUARY,short,resources/sound/trials/audio_stim_human50.mp3,60fd2ef97a195bfbd002ed69,20,Female,Right handed,2021-07-26_20h52.37.088,MA Experiment 2,2021.1.2,Win32,60.3427468,2,26,94,14,1,,,,,
0.8941,response_2,,NAPKIN,MINERAL,,,,,,SPINACH,APRICOT,long,resources/sound/catchTrials/audio_control_comp_project18.mp3,60fd2ef97a195bfbd002ed69,20,Female,Right handed,2021-07-26_20h52.37.088,MA Experiment 2,2021.1.2,Win32,60.3427468,,,,,,0,5,5,21,1
2.4932,response_1,shortValid,SHOULDER,MONUMENT,,,,,,RECEIPT,LIMOUSINE,short,resources/sound/trials/audio_stim_comp40.mp3,60fd2ef97a195bfbd002ed69,20,Female,Right handed,2021-07-26_20h52.37.088,MA Experiment 2,2021.1.2,Win32,60.3427468,2,27,95,2,1,,,,,
1.3427,response_1,shortValid,LIGHTNING,LECTURER,,,,,,DRIZZLE,CARDINAL,short,resources/sound/trials/audio_stim_comp69.mp3,60fd2ef97a195bfbd002ed69,20,Female,Right handed,2021-07-26_20h52.37.088,MA Experiment 2,2021.1.2,Win32,60.3427468,2,28,96,0,1,,,,,
0.9102,response_1,shortValid,PIPING,CARNATION,,,,,,WHISTLE,TREASURER,short,resources/sound/trials/audio_stim_comp12.mp3,60fd2ef97a195bfbd002ed69,20,Female,Right handed,2021-07-26_20h52.37.088,MA Experiment 2,2021.1.2,Win32,60.3427468,2,29,97,3,1,,,,,
1.4608,response_1,shortFoil,GRADUATE,COMMITTEE,,,,,,PAINTER,VEHICLE,long,resources/sound/trials/audio_stim_human47.mp3,60fd2ef97a195bfbd002ed69,20,Female,Right handed,2021-07-26_20h52.37.088,MA Experiment 2,2021.1.2,Win32,60.3427468,2,30,98,28,1,,,,,
1.544,response_2,,BERRY,INJURY,,,,,,HOBBY,COLONY,short,resources/sound/catchTrials/audio_control_comp_project04.mp3,60fd2ef97a195bfbd002ed69,20,Female,Right handed,2021-07-26_20h52.37.088,MA Experiment 2,2021.1.2,Win32,60.3427468,,,,,,0,10,10,2,1
1.011,response_1,shortFoil,SHEEPSKIN,OXYGEN,,,,,,RUBBER,PROPERTY,long,resources/sound/trials/audio_stim_human0.mp3,60fd2ef97a195bfbd002ed69,20,Female,Right handed,2021-07-26_20h52.37.088,MA Experiment 2,2021.1.2,Win32,60.3427468,2,31,99,29,1,,,,,
1.9096,response_2,shortValid,TUMBLE,INSTRUCTOR,,,,,,RECEIPT,LIMOUSINE,long,resources/sound/trials/audio_stim_comp40.mp3,60fd2ef97a195bfbd002ed69,20,Female,Right handed,2021-07-26_20h52.37.088,MA Experiment 2,2021.1.2,Win32,60.3427468,2,32,100,19,1,,,,,
1.5276,response_2,shortFoil,DUEL,HURRICANE,,,,,,DAYLIGHT,MATERIAL,long,resources/sound/trials/audio_stim_human42.mp3,60fd2ef97a195bfbd002ed69,20,Female,Right handed,2021-07-26_20h52.37.088,MA Experiment 2,2021.1.2,Win32,60.3427468,2,33,101,26,1,,,,,
0.7265,response_1,shortFoil,SOFA,CHOCOLATE,,,,,,DRIZZLE,CARDINAL,long,resources/sound/trials/audio_stim_comp69.mp3,60fd2ef97a195bfbd002ed69,20,Female,Right handed,2021-07-26_20h52.37.088,MA Experiment 2,2021.1.2,Win32,60.3427468,3,0,102,17,1,,,,,
0.8681,response_2,shortFoil,ANCHOR,HEROIN,,,,,,CONCRETE,ENEMY,short,resources/sound/trials/audio_stim_human67.mp3,60fd2ef97a195bfbd002ed69,20,Female,Right handed,2021-07-26_20h52.37.088,MA Experiment 2,2021.1.2,Win32,60.3427468,3,1,103,10,1,,,,,
1.1105,response_2,longValid,HARBOUR,POTATO,,,,,,BRAINSTORM,GREEN NEEDLE,short,resources/sound/trials/audio_stim_original.mp3,60fd2ef97a195bfbd002ed69,20,Female,Right handed,2021-07-26_20h52.37.088,MA Experiment 2,2021.1.2,Win32,60.3427468,3,2,104,16,1,,,,,
1.2108,response_2,,DOORWAY,ALCOHOL,,,,,,HOBBY,COLONY,long,resources/sound/catchTrials/audio_control_comp_project04.mp3,60fd2ef97a195bfbd002ed69,20,Female,Right handed,2021-07-26_20h52.37.088,MA Experiment 2,2021.1.2,Win32,60.3427468,,,,,,0,17,17,18,1
1.3759,response_1,shortFoil,RUSTY,AMMONIA,,,,,,MINER,EMERALD,long,resources/sound/trials/audio_stim_comp6.mp3,60fd2ef97a195bfbd002ed69,20,Female,Right handed,2021-07-26_20h52.37.088,MA Experiment 2,2021.1.2,Win32,60.3427468,3,3,105,18,1,,,,,
0.9954,response_2,shortValid,PATIENT,GORILLA,,,,,,MINER,EMERALD,long,resources/sound/trials/audio_stim_human6.mp3,60fd2ef97a195bfbd002ed69,20,Female,Right handed,2021-07-26_20h52.37.088,MA Experiment 2,2021.1.2,Win32,60.3427468,3,4,106,30,1,,,,,
1.0272,response_2,longValid,WINDOW,MEDICINE,,,,,,DAYLIGHT,MATERIAL,long,resources/sound/trials/audio_stim_human42.mp3,60fd2ef97a195bfbd002ed69,20,Female,Right handed,2021-07-26_20h52.37.088,MA Experiment 2,2021.1.2,Win32,60.3427468,3,5,107,26,1,,,,,
1.2436,response_1,shortFoil,PRINCESS,NEIGHBOURHOOD,,,,,,RUBBER,PROPERTY,short,resources/sound/trials/audio_stim_human0.mp3,60fd2ef97a195bfbd002ed69,20,Female,Right handed,2021-07-26_20h52.37.088,MA Experiment 2,2021.1.2,Win32,60.3427468,3,6,108,12,1,,,,,
1.0582,response_2,,WIRE,REFEREE,,,,,,CORNER,ENGINEER,short,resources/sound/catchTrials/audio_control_comp_project14.mp3,60fd2ef97a195bfbd002ed69,20,Female,Right handed,2021-07-26_20h52.37.088,MA Experiment 2,2021.1.2,Win32,60.3427468,,,,,,0,29,29,1,1
1.1604,response_1,shortValid,DANCER,EMULSION,,,,,,RUBBER,PROPERTY,long,resources/sound/trials/audio_stim_human0.mp3,60fd2ef97a195bfbd002ed69,20,Female,Right handed,2021-07-26_20h52.37.088,MA Experiment 2,2021.1.2,Win32,60.3427468,3,7,109,29,1,,,,,
1.8609,response_1,shortFoil,NOVEL,ENAMEL,,,,,,CONCRETE,ENEMY,long,resources/sound/trials/audio_stim_human67.mp3,60fd2ef97a195bfbd002ed69,20,Female,Right handed,2021-07-26_20h52.37.088,MA Experiment 2,2021.1.2,Win32,60.3427468,3,8,110,27,1,,,,,
1.6082,response_2,longValid,CRYSTAL,OPENING,,,,,,HARDWARE,OVERCOAT,long,resources/sound/trials/audio_stim_human35.mp3,60fd2ef97a195bfbd002ed69,20,Female,Right handed,2021-07-26_20h52.37.088,MA Experiment 2,2021.1.2,Win32,60.3427468,3,9,111,25,1,,,,,
0.9106,response_2,shortValid,BEETLE,UMBRELLA,,,,,,WORKER,VISITOR,long,resources/sound/trials/audio_stim_comp17.mp3,60fd2ef97a195bfbd002ed69,20,Female,Right handed,2021-07-26_20h52.37.088,MA Experiment 2,2021.1.2,Win32,60.3427468,3,10,112,23,1,,,,,
1.0272,response_2,,SEGMENT,PHOTOGRAPH,,,,,,HOBBY,COLONY,long,resources/sound/catchTrials/audio_control_human_project04.mp3,60fd2ef97a195bfbd002ed69,20,Female,Right handed,2021-07-26_20h52.37.088,MA Experiment 2,2021.1.2,Win32,60.3427468,,,,,,0,14,14,27,1
1.1598,response_2,shortFoil,FERTILE,PROPELLER,,,,,,MARBLE,CUSTOMER,short,resources/sound/trials/audio_stim_comp65.mp3,60fd2ef97a195bfbd002ed69,20,Female,Right handed,2021-07-26_20h52.37.088,MA Experiment 2,2021.1.2,Win32,60.3427468,3,11,113,4,1,,,,,
0.7103,response_1,shortValid,UNCLE,SPECIALIST,,,,,,MINER,EMERALD,short,resources/sound/trials/audio_stim_comp6.mp3,60fd2ef97a195bfbd002ed69,20,Female,Right handed,2021-07-26_20h52.37.088,MA Experiment 2,2021.1.2,Win32,60.3427468,3,12,114,1,1,,,,,
1.1771,response_1,longFoil,MISTRESS,VINEGAR,,,,,,ATHLETE,IVORY,long,resources/sound/trials/audio_stim_comp57.mp3,60fd2ef97a195bfbd002ed69,20,Female,Right handed,2021-07-26_20h52.37.088,MA Experiment 2,2021.1.2,Win32,60.3427468,3,13,115,22,1,,,,,
1.0108,response_2,longValid,BUTTER,CATHEDRAL,,,,,,ROBBER,RATTLESNAKE,long,resources/sound/trials/audio_stim_human64.mp3,60fd2ef97a195bfbd002ed69,20,Female,Right handed,2021-07-26_20h52.37.088,MA Experiment 2,2021.1.2,Win32,60.3427468,3,14,116,32,1,,,,,
1.0937,response_2,,WAFER,NEWSPAPER,,,,,,IRIS,VIOLIN,short,resources/sound/catchTrials/audio_control_human_project12.mp3,60fd2ef97a195bfbd002ed69,20,Female,Right handed,2021-07-26_20h52.37.088,MA Experiment 2,2021.1.2,Win32,60.3427468,,,,,,0,19,19,8,1
1.278,response_1,shortValid,FATHER,FURNITURE,,,,,,ATHLETE,IVORY,short,resources/sound/trials/audio_stim_comp57.mp3,60fd2ef97a195bfbd002ed69,20,Female,Right handed,2021-07-26_20h52.37.088,MA Experiment 2,2021.1.2,Win32,60.3427468,3,15,117,5,1,,,,,
1.2931,response_1,longFoil,DECOY,FACTORY,,,,,,PARTY,SANCTUARY,short,resources/sound/trials/audio_stim_human50.mp3,60fd2ef97a195bfbd002ed69,20,Female,Right handed,2021-07-26_20h52.37.088,MA Experiment 2,2021.1.2,Win32,60.3427468,3,16,118,14,1,,,,,
1.8489,response_2,longValid,WALRUS,AVENUE,,,,,,RECEIPT,LIMOUSINE,long,resources/sound/trials/audio_stim_comp40.mp3,60fd2ef97a195bfbd002ed69,20,Female,Right handed,2021-07-26_20h52.37.088,MA Experiment 2,2021.1.2,Win32,60.3427468,3,17,119,19,1,,,,,
1.3441,response_2,longFoil,MUSCLE,CAMERA,,,,,,BRAINSTORM,GREEN NEEDLE,long,resources/sound/trials/audio_stim_original.mp3,60fd2ef97a195bfbd002ed69,20,Female,Right handed,2021-07-26_20h52.37.088,MA Experiment 2,2021.1.2,Win32,60.3427468,3,18,120,33,1,,,,,
0.6773,response_1,,TWEEZER,CABINET,,,,,,POISON,REVOLVER,short,resources/sound/catchTrials/audio_control_human_project01.mp3,60fd2ef97a195bfbd002ed69,20,Female,Right handed,2021-07-26_20h52.37.088,MA Experiment 2,2021.1.2,Win32,60.3427468,,,,,,0,11,11,9,1
1.2444,response_1,shortFoil,TRAITOR,MINISTER,,,,,,WHISTLE,TREASURER,long,resources/sound/trials/audio_stim_comp12.mp3,60fd2ef97a195bfbd002ed69,20,Female,Right handed,2021-07-26_20h52.37.088,MA Experiment 2,2021.1.2,Win32,60.3427468,3,19,121,20,1,,,,,
0.8271,response_1,longFoil,SULPHUR,POLIO,,,,,,DRIZZLE,CARDINAL,short,resources/sound/trials/audio_stim_comp69.mp3,60fd2ef97a195bfbd002ed69,20,Female,Right handed,2021-07-26_20h52.37.088,MA Experiment 2,2021.1.2,Win32,60.3427468,3,20,122,0,1,,,,,
1.359,response_1,shortFoil,MEDICINE,TEMPERATURE,,,,,,WHISTLE,TREASURER,short,resources/sound/trials/audio_stim_comp12.mp3,60fd2ef97a195bfbd002ed69,20,Female,Right handed,2021-07-26_20h52.37.088,MA Experiment 2,2021.1.2,Win32,60.3427468,3,21,123,3,1,,,,,
1.5918,response_2,longValid,HAMSTER,CIGARETTE,,,,,,PAINTER,VEHICLE,long,resources/sound/trials/audio_stim_human47.mp3,60fd2ef97a195bfbd002ed69,20,Female,Right handed,2021-07-26_20h52.37.088,MA Experiment 2,2021.1.2,Win32,60.3427468,3,22,124,28,1,,,,,
1.0775,response_2,,EVENING,LEMONADE,,,,,,IRIS,VIOLIN,long,resources/sound/catchTrials/audio_control_comp_project12.mp3,60fd2ef97a195bfbd002ed69,20,Female,Right handed,2021-07-26_20h52.37.088,MA Experiment 2,2021.1.2,Win32,60.3427468,,,,,,0,25,25,20,1
1.2778,response_2,shortValid,MORNING,GRASSHOPPER,,,,,,DAYLIGHT,MATERIAL,short,resources/sound/trials/audio_stim_human42.mp3,60fd2ef97a195bfbd002ed69,20,Female,Right handed,2021-07-26_20h52.37.088,MA Experiment 2,2021.1.2,Win32,60.3427468,3,23,125,9,1,,,,,
1.5107,response_2,shortFoil,OLIVE,DIAMOND,,,,,,WORKER,VISITOR,short,resources/sound/trials/audio_stim_comp17.mp3,60fd2ef97a195bfbd002ed69,20,Female,Right handed,2021-07-26_20h52.37.088,MA Experiment 2,2021.1.2,Win32,60.3427468,3,24,126,6,1,,,,,
1.2934,response_2,shortValid,KETTLE,ACROBAT,,,,,,ROBBER,RATTLESNAKE,short,resources/sound/trials/audio_stim_human64.mp3,60fd2ef97a195bfbd002ed69,20,Female,Right handed,2021-07-26_20h52.37.088,MA Experiment 2,2021.1.2,Win32,60.3427468,3,25,127,15,1,,,,,
1.1608,response_1,shortValid,HURDLE,GYMNASTICS,,,,,,PAINTER,VEHICLE,short,resources/sound/trials/audio_stim_human47.mp3,60fd2ef97a195bfbd002ed69,20,Female,Right handed,2021-07-26_20h52.37.088,MA Experiment 2,2021.1.2,Win32,60.3427468,3,26,128,11,1,,,,,
0.9605,response_2,,HAMMER,AMBULANCE,,,,,,ICY,JITTERBUG,short,resources/sound/catchTrials/audio_control_comp_project08.mp3,60fd2ef97a195bfbd002ed69,20,Female,Right handed,2021-07-26_20h52.37.088,MA Experiment 2,2021.1.2,Win32,60.3427468,,,,,,0,9,9,7,1
1.2112,response_2,shortFoil,WRITING,CLARINET,,,,,,SACRED,GALAXY,short,resources/sound/trials/audio_stim_comp1.mp3,60fd2ef97a195bfbd002ed69,20,Female,Right handed,2021-07-26_20h52.37.088,MA Experiment 2,2021.1.2,Win32,60.3427468,3,27,129,7,1,,,,,
2.0439,response_2,shortFoil,NECKLACE,ADMIRAL,,,,,,RECEIPT,LIMOUSINE,short,resources/sound/trials/audio_stim_comp40.mp3,60fd2ef97a195bfbd002ed69,20,Female,Right handed,2021-07-26_20h52.37.088,MA Experiment 2,2021.1.2,Win32,60.3427468,3,28,130,2,1,,,,,
0.9602,response_2,shortFoil,SODA,MECHANIC,,,,,,HARDWARE,OVERCOAT,short,resources/sound/trials/audio_stim_human35.mp3,60fd2ef97a195bfbd002ed69,20,Female,Right handed,2021-07-26_20h52.37.088,MA Experiment 2,2021.1.2,Win32,60.3427468,3,29,131,8,1,,,,,
0.6942,response_1,longValid,BURNER,BUTTERFLY,,,,,,MINER,EMERALD,short,resources/sound/trials/audio_stim_human6.mp3,60fd2ef97a195bfbd002ed69,20,Female,Right handed,2021-07-26_20h52.37.088,MA Experiment 2,2021.1.2,Win32,60.3427468,3,30,132,13,1,,,,,
1.327,response_1,,PIANO,MOLECULE,,,,,,JUGGLER,DANDELION,long,resources/sound/catchTrials/audio_control_human_project09.mp3,60fd2ef97a195bfbd002ed69,20,Female,Right handed,2021-07-26_20h52.37.088,MA Experiment 2,2021.1.2,Win32,60.3427468,,,,,,0,18,18,31,1
1.8438,response_1,shortValid,TEMPLE,SAXOPHONE,,,,,,SACRED,GALAXY,long,resources/sound/trials/audio_stim_comp1.mp3,60fd2ef97a195bfbd002ed69,20,Female,Right handed,2021-07-26_20h52.37.088,MA Experiment 2,2021.1.2,Win32,60.3427468,3,31,133,24,1,,,,,
1.5443,response_2,shortValid,CIGAR,CAPITAL,,,,,,MARBLE,CUSTOMER,long,resources/sound/trials/audio_stim_comp65.mp3,60fd2ef97a195bfbd002ed69,20,Female,Right handed,2021-07-26_20h52.37.088,MA Experiment 2,2021.1.2,Win32,60.3427468,3,32,134,21,1,,,,,
1.0779,response_2,longFoil,FOREARM,BEVERAGE,,,,,,PARTY,SANCTUARY,long,resources/sound/trials/audio_stim_human50.mp3,60fd2ef97a195bfbd002ed69,20,Female,Right handed,2021-07-26_20h52.37.088,MA Experiment 2,2021.1.2,Win32,60.3427468,3,33,135,31,1,,,,,
