response.time,response,cueTarget,rand_foil_1,rand_foil_2,prac_trials.thisRepN,prac_trials.thisTrialN,prac_trials.thisN,prac_trials.thisIndex,prac_trials.ran,word_1,word_2,cue,file_path,participant,age,gender,handedness,date,expName,psychopyVersion,OS,frameRate,trials.thisRepN,trials.thisTrialN,trials.thisN,trials.thisIndex,trials.ran,catchTrials.thisRepN,catchTrials.thisTrialN,catchTrials.thisN,catchTrials.thisIndex,catchTrials.ran
2.2923,response_2,shortValid,CABIN,CANDLELIGHT,0,0,0,4,1,FIZZY,ELECTRIC,short,resources/sound/prac_trials/practice_cue4.mp3,60fd50f818928248f1a88449,24,Female,Right handed,2021-07-26_21h00.03.260,MA Experiment 2,2021.1.2,Win32,59.99880002,,,,,,,,,,
1.2294,response_2,shortValid,DECOY,TANGERINE,0,1,1,8,1,DAGGER,EMPHASIS,long,resources/sound/prac_trials/practice_cue8.mp3,60fd50f818928248f1a88449,24,Female,Right handed,2021-07-26_21h00.03.260,MA Experiment 2,2021.1.2,Win32,59.99880002,,,,,,,,,,
1.146,response_2,shortFoil,MEASLES,MEDICINE,0,2,2,3,1,EAGER,QUALIFY,short,resources/sound/prac_trials/practice_cue_human3.mp3,60fd50f818928248f1a88449,24,Female,Right handed,2021-07-26_21h00.03.260,MA Experiment 2,2021.1.2,Win32,59.99880002,,,,,,,,,,
1.2292,response_2,longValid,SULPHUR,AMMONIA,0,3,3,2,1,RECENT,TOBACCO,short,resources/sound/prac_trials/practice_cue2.mp3,60fd50f818928248f1a88449,24,Female,Right handed,2021-07-26_21h00.03.260,MA Experiment 2,2021.1.2,Win32,59.99880002,,,,,,,,,,
1.1816,response_2,longFoil,HURDLE,CATHEDRAL,0,4,4,5,1,NONSENSE,OASIS,short,resources/sound/prac_trials/practice_cue_human5.mp3,60fd50f818928248f1a88449,24,Female,Right handed,2021-07-26_21h00.03.260,MA Experiment 2,2021.1.2,Win32,59.99880002,,,,,,,,,,
1.3467,response_2,shortValid,WINDOW,INSTRUCTOR,0,5,5,6,1,VACANT,SALVATION,long,resources/sound/prac_trials/practice_cue6.mp3,60fd50f818928248f1a88449,24,Female,Right handed,2021-07-26_21h00.03.260,MA Experiment 2,2021.1.2,Win32,59.99880002,,,,,,,,,,
1.4308,response_2,longValid,PIPING,DISSECTION,0,6,6,9,1,GRUMPY,LABYRINTH,long,resources/sound/prac_trials/practice_cue_human9.mp3,60fd50f818928248f1a88449,24,Female,Right handed,2021-07-26_21h00.03.260,MA Experiment 2,2021.1.2,Win32,59.99880002,,,,,,,,,,
1.6957,response_1,shortValid,FEVER,GALLERY,0,7,7,10,1,SAFFRON,JAVELIN,long,resources/sound/prac_trials/practice_cue10.mp3,60fd50f818928248f1a88449,24,Female,Right handed,2021-07-26_21h00.03.260,MA Experiment 2,2021.1.2,Win32,59.99880002,,,,,,,,,,
2.2965,response_1,shortFoil,BERRY,MOLECULE,0,8,8,11,1,KETCHUP,GONDOLA,long,resources/sound/prac_trials/practice_cue_human11.mp3,60fd50f818928248f1a88449,24,Female,Right handed,2021-07-26_21h00.03.260,MA Experiment 2,2021.1.2,Win32,59.99880002,,,,,,,,,,
2.7302,response_2,longValid,NECKLACE,HEROIN,0,9,9,1,1,CABLE,REPUBLIC,short,resources/sound/prac_trials/practice_cue_human1.mp3,60fd50f818928248f1a88449,24,Female,Right handed,2021-07-26_21h00.03.260,MA Experiment 2,2021.1.2,Win32,59.99880002,,,,,,,,,,
2.1971,response_1,longValid,LEADER,MESSENGER,0,10,10,0,1,AARDVARK,FALLACY,short,resources/sound/prac_trials/practice_cue0.mp3,60fd50f818928248f1a88449,24,Female,Right handed,2021-07-26_21h00.03.260,MA Experiment 2,2021.1.2,Win32,59.99880002,,,,,,,,,,
0.9783,response_2,longFoil,DOORWAY,ALPHABET,0,11,11,7,1,BUCKLE,WALLABY,long,resources/sound/prac_trials/practice_cue_human7.mp3,60fd50f818928248f1a88449,24,Female,Right handed,2021-07-26_21h00.03.260,MA Experiment 2,2021.1.2,Win32,59.99880002,,,,,,,,,,
1.4581,response_2,shortValid,SEGMENT,CORRIDOR,,,,,,MINER,EMERALD,short,resources/sound/trials/audio_stim_human6.mp3,60fd50f818928248f1a88449,24,Female,Right handed,2021-07-26_21h00.03.260,MA Experiment 2,2021.1.2,Win32,59.99880002,0,0,0,13,1,,,,,
1.1456,response_2,shortValid,KENNEL,HANDKERCHIEF,,,,,,HARDWARE,OVERCOAT,short,resources/sound/trials/audio_stim_human35.mp3,60fd50f818928248f1a88449,24,Female,Right handed,2021-07-26_21h00.03.260,MA Experiment 2,2021.1.2,Win32,59.99880002,0,1,1,8,1,,,,,
1.4462,response_2,longFoil,BEETLE,DESTROYER,,,,,,SACRED,GALAXY,short,resources/sound/trials/audio_stim_comp1.mp3,60fd50f818928248f1a88449,24,Female,Right handed,2021-07-26_21h00.03.260,MA Experiment 2,2021.1.2,Win32,59.99880002,0,2,2,7,1,,,,,
1.0787,response_2,,STATION,CARNATION,,,,,,IRIS,VIOLIN,short,resources/sound/catchTrials/audio_control_human_project12.mp3,60fd50f818928248f1a88449,24,Female,Right handed,2021-07-26_21h00.03.260,MA Experiment 2,2021.1.2,Win32,59.99880002,,,,,,0,1,1,8,1
1.2631,response_1,longFoil,BURNER,LECTURER,,,,,,DAYLIGHT,MATERIAL,long,resources/sound/trials/audio_stim_human42.mp3,60fd50f818928248f1a88449,24,Female,Right handed,2021-07-26_21h00.03.260,MA Experiment 2,2021.1.2,Win32,59.99880002,0,3,3,26,1,,,,,
1.5954,response_1,longValid,CAPTAIN,CABINET,,,,,,WHISTLE,TREASURER,short,resources/sound/trials/audio_stim_comp12.mp3,60fd50f818928248f1a88449,24,Female,Right handed,2021-07-26_21h00.03.260,MA Experiment 2,2021.1.2,Win32,59.99880002,0,4,4,3,1,,,,,
1.3462,response_2,longFoil,SOFA,AVENUE,,,,,,RECEIPT,LIMOUSINE,short,resources/sound/trials/audio_stim_comp40.mp3,60fd50f818928248f1a88449,24,Female,Right handed,2021-07-26_21h00.03.260,MA Experiment 2,2021.1.2,Win32,59.99880002,0,5,5,2,1,,,,,
1.3462,response_2,longValid,MOONLIGHT,ENAMEL,,,,,,CONCRETE,ENEMY,short,resources/sound/trials/audio_stim_human67.mp3,60fd50f818928248f1a88449,24,Female,Right handed,2021-07-26_21h00.03.260,MA Experiment 2,2021.1.2,Win32,59.99880002,0,6,6,10,1,,,,,
1.1152,response_1,,NEIGHBOUR,ANTIQUE,,,,,,VIOLET,LUBRICANT,short,resources/sound/catchTrials/audio_control_comp_project07.mp3,60fd50f818928248f1a88449,24,Female,Right handed,2021-07-26_21h00.03.260,MA Experiment 2,2021.1.2,Win32,59.99880002,,,,,,0,27,27,3,1
1.8626,response_1,longFoil,ANCHOR,UMBRELLA,,,,,,DRIZZLE,CARDINAL,long,resources/sound/trials/audio_stim_comp69.mp3,60fd50f818928248f1a88449,24,Female,Right handed,2021-07-26_21h00.03.260,MA Experiment 2,2021.1.2,Win32,59.99880002,0,7,7,17,1,,,,,
1.6975,,longFoil,MORNING,CAMERA,,,,,,ATHLETE,IVORY,long,resources/sound/trials/audio_stim_comp57.mp3,60fd50f818928248f1a88449,24,Female,Right handed,2021-07-26_21h00.03.260,MA Experiment 2,2021.1.2,Win32,59.99880002,0,8,8,22,1,,,,,
0.8785,response_1,shortFoil,WALRUS,MERCURY,,,,,,MINER,EMERALD,long,resources/sound/trials/audio_stim_comp6.mp3,60fd50f818928248f1a88449,24,Female,Right handed,2021-07-26_21h00.03.260,MA Experiment 2,2021.1.2,Win32,59.99880002,0,9,9,18,1,,,,,
1.3671,response_1,longFoil,GIRDLE,SPECIALIST,,,,,,PAINTER,VEHICLE,long,resources/sound/trials/audio_stim_human47.mp3,60fd50f818928248f1a88449,24,Female,Right handed,2021-07-26_21h00.03.260,MA Experiment 2,2021.1.2,Win32,59.99880002,0,10,10,28,1,,,,,
1.3432,response_2,,MISTRESS,DIAMOND,,,,,,BORDER,ALGEBRA,long,resources/sound/catchTrials/audio_control_comp_project00.mp3,60fd50f818928248f1a88449,24,Female,Right handed,2021-07-26_21h00.03.260,MA Experiment 2,2021.1.2,Win32,59.99880002,,,,,,0,7,7,16,1
1.3962,response_1,longValid,CIGAR,ALCOHOL,,,,,,ATHLETE,IVORY,short,resources/sound/trials/audio_stim_comp57.mp3,60fd50f818928248f1a88449,24,Female,Right handed,2021-07-26_21h00.03.260,MA Experiment 2,2021.1.2,Win32,59.99880002,0,11,11,5,1,,,,,
1.5473,response_4,longFoil,EARTHWORM,HONEYMOON,,,,,,BRAINSTORM,GREEN NEEDLE,short,resources/sound/trials/audio_stim_original.mp3,60fd50f818928248f1a88449,24,Female,Right handed,2021-07-26_21h00.03.260,MA Experiment 2,2021.1.2,Win32,59.99880002,0,12,12,16,1,,,,,
1.731,response_2,shortFoil,PIANO,PHYSICIAN,,,,,,BRAINSTORM,GREEN NEEDLE,long,resources/sound/trials/audio_stim_original.mp3,60fd50f818928248f1a88449,24,Female,Right handed,2021-07-26_21h00.03.260,MA Experiment 2,2021.1.2,Win32,59.99880002,0,13,13,33,1,,,,,
1.1475,response_1,shortFoil,MURAL,GORILLA,,,,,,MARBLE,CUSTOMER,short,resources/sound/trials/audio_stim_comp65.mp3,60fd50f818928248f1a88449,24,Female,Right handed,2021-07-26_21h00.03.260,MA Experiment 2,2021.1.2,Win32,59.99880002,0,14,14,4,1,,,,,
0.728,response_2,,FAIRY,ADMIRAL,,,,,,BORDER,ALGEBRA,short,resources/sound/catchTrials/audio_control_comp_project00.mp3,60fd50f818928248f1a88449,24,Female,Right handed,2021-07-26_21h00.03.260,MA Experiment 2,2021.1.2,Win32,59.99880002,,,,,,0,25,25,0,1
1.2958,response_1,longFoil,VALLEY,PHOTOGRAPH,,,,,,MARBLE,CUSTOMER,long,resources/sound/trials/audio_stim_comp65.mp3,60fd50f818928248f1a88449,24,Female,Right handed,2021-07-26_21h00.03.260,MA Experiment 2,2021.1.2,Win32,59.99880002,0,15,15,21,1,,,,,
1.0281,response_2,longValid,PATIENT,NEWSPAPER,,,,,,DRIZZLE,CARDINAL,short,resources/sound/trials/audio_stim_comp69.mp3,60fd50f818928248f1a88449,24,Female,Right handed,2021-07-26_21h00.03.260,MA Experiment 2,2021.1.2,Win32,59.99880002,0,16,16,0,1,,,,,
1.2655,response_1,longFoil,OLIVE,RETAILER,,,,,,DAYLIGHT,MATERIAL,short,resources/sound/trials/audio_stim_human42.mp3,60fd50f818928248f1a88449,24,Female,Right handed,2021-07-26_21h00.03.260,MA Experiment 2,2021.1.2,Win32,59.99880002,0,17,17,9,1,,,,,
1.2171,response_2,shortFoil,FOREARM,EMULSION,,,,,,PARTY,SANCTUARY,long,resources/sound/trials/audio_stim_human50.mp3,60fd50f818928248f1a88449,24,Female,Right handed,2021-07-26_21h00.03.260,MA Experiment 2,2021.1.2,Win32,59.99880002,0,18,18,31,1,,,,,
0.9953,response_2,,HARBOUR,INSTITUTE,,,,,,IRIS,VIOLIN,long,resources/sound/catchTrials/audio_control_human_project12.mp3,60fd50f818928248f1a88449,24,Female,Right handed,2021-07-26_21h00.03.260,MA Experiment 2,2021.1.2,Win32,59.99880002,,,,,,0,9,9,24,1
1.1956,response_2,longValid,NATIVE,ACROBAT,,,,,,ROBBER,RATTLESNAKE,short,resources/sound/trials/audio_stim_human64.mp3,60fd50f818928248f1a88449,24,Female,Right handed,2021-07-26_21h00.03.260,MA Experiment 2,2021.1.2,Win32,59.99880002,0,19,19,15,1,,,,,
1.3837,response_2,longValid,NURSERY,ASBESTOS,,,,,,MINER,EMERALD,short,resources/sound/trials/audio_stim_comp6.mp3,60fd50f818928248f1a88449,24,Female,Right handed,2021-07-26_21h00.03.260,MA Experiment 2,2021.1.2,Win32,59.99880002,0,20,20,1,1,,,,,
1.2123,response_2,longValid,WIRE,PROJECTOR,,,,,,SACRED,GALAXY,long,resources/sound/trials/audio_stim_comp1.mp3,60fd50f818928248f1a88449,24,Female,Right handed,2021-07-26_21h00.03.260,MA Experiment 2,2021.1.2,Win32,59.99880002,0,21,21,24,1,,,,,
1.6486,response_2,shortFoil,EVENING,ATHLETICS,,,,,,ROBBER,RATTLESNAKE,long,resources/sound/trials/audio_stim_human64.mp3,60fd50f818928248f1a88449,24,Female,Right handed,2021-07-26_21h00.03.260,MA Experiment 2,2021.1.2,Win32,59.99880002,0,22,22,32,1,,,,,
1.3918,response_2,,KETTLE,POTATO,,,,,,HOBBY,COLONY,short,resources/sound/catchTrials/audio_control_comp_project04.mp3,60fd50f818928248f1a88449,24,Female,Right handed,2021-07-26_21h00.03.260,MA Experiment 2,2021.1.2,Win32,59.99880002,,,,,,0,17,17,2,1
1.5233,response_2,shortValid,VILLAGE,INSTRUMENT,,,,,,PARTY,SANCTUARY,short,resources/sound/trials/audio_stim_human50.mp3,60fd50f818928248f1a88449,24,Female,Right handed,2021-07-26_21h00.03.260,MA Experiment 2,2021.1.2,Win32,59.99880002,0,23,23,14,1,,,,,
,,longFoil,CEREAL,CAPITAL,,,,,,WORKER,VISITOR,long,resources/sound/trials/audio_stim_comp17.mp3,60fd50f818928248f1a88449,24,Female,Right handed,2021-07-26_21h00.03.260,MA Experiment 2,2021.1.2,Win32,59.99880002,0,24,24,23,1,,,,,
1.4472,response_2,shortValid,JURY,LEMONADE,,,,,,RUBBER,PROPERTY,short,resources/sound/trials/audio_stim_human0.mp3,60fd50f818928248f1a88449,24,Female,Right handed,2021-07-26_21h00.03.260,MA Experiment 2,2021.1.2,Win32,59.99880002,0,25,25,12,1,,,,,
1.2596,response_2,longValid,INCOME,ABDOMEN,,,,,,WORKER,VISITOR,short,resources/sound/trials/audio_stim_comp17.mp3,60fd50f818928248f1a88449,24,Female,Right handed,2021-07-26_21h00.03.260,MA Experiment 2,2021.1.2,Win32,59.99880002,0,26,26,6,1,,,,,
1.0474,response_2,,RABBI,STRAWBERRY,,,,,,ICY,JITTERBUG,short,resources/sound/catchTrials/audio_control_comp_project08.mp3,60fd50f818928248f1a88449,24,Female,Right handed,2021-07-26_21h00.03.260,MA Experiment 2,2021.1.2,Win32,59.99880002,,,,,,0,18,18,7,1
1.3629,response_2,longFoil,FATHER,FAMILY,,,,,,CONCRETE,ENEMY,long,resources/sound/trials/audio_stim_human67.mp3,60fd50f818928248f1a88449,24,Female,Right handed,2021-07-26_21h00.03.260,MA Experiment 2,2021.1.2,Win32,59.99880002,0,27,27,27,1,,,,,
1.5109,response_2,longFoil,ACRE,HURRICANE,,,,,,RUBBER,PROPERTY,long,resources/sound/trials/audio_stim_human0.mp3,60fd50f818928248f1a88449,24,Female,Right handed,2021-07-26_21h00.03.260,MA Experiment 2,2021.1.2,Win32,59.99880002,0,28,28,29,1,,,,,
1.6789,response_2,longFoil,DIVING,MONUMENT,,,,,,PAINTER,VEHICLE,short,resources/sound/trials/audio_stim_human47.mp3,60fd50f818928248f1a88449,24,Female,Right handed,2021-07-26_21h00.03.260,MA Experiment 2,2021.1.2,Win32,59.99880002,0,29,29,11,1,,,,,
1.3568,response_1,shortFoil,PRINCESS,HEADQUARTERS,,,,,,HARDWARE,OVERCOAT,long,resources/sound/trials/audio_stim_human35.mp3,60fd50f818928248f1a88449,24,Female,Right handed,2021-07-26_21h00.03.260,MA Experiment 2,2021.1.2,Win32,59.99880002,0,30,30,25,1,,,,,
1.1474,response_2,,PICTURE,BUTTERFLY,,,,,,NAVY,RECTANGLE,long,resources/sound/catchTrials/audio_control_comp_project06.mp3,60fd50f818928248f1a88449,24,Female,Right handed,2021-07-26_21h00.03.260,MA Experiment 2,2021.1.2,Win32,59.99880002,,,,,,0,23,23,22,1
1.4627,response_2,shortValid,TEMPLE,GRASSHOPPER,,,,,,MINER,EMERALD,long,resources/sound/trials/audio_stim_human6.mp3,60fd50f818928248f1a88449,24,Female,Right handed,2021-07-26_21h00.03.260,MA Experiment 2,2021.1.2,Win32,59.99880002,0,31,31,30,1,,,,,
1.0133,response_2,longValid,UNCLE,GINGERBREAD,,,,,,RECEIPT,LIMOUSINE,long,resources/sound/trials/audio_stim_comp40.mp3,60fd50f818928248f1a88449,24,Female,Right handed,2021-07-26_21h00.03.260,MA Experiment 2,2021.1.2,Win32,59.99880002,0,32,32,19,1,,,,,
1.9295,response_2,longValid,STOCKING,VINEGAR,,,,,,WHISTLE,TREASURER,long,resources/sound/trials/audio_stim_comp12.mp3,60fd50f818928248f1a88449,24,Female,Right handed,2021-07-26_21h00.03.260,MA Experiment 2,2021.1.2,Win32,59.99880002,0,33,33,20,1,,,,,
1.5128,response_1,shortFoil,HAMMER,OXYGEN,,,,,,PAINTER,VEHICLE,long,resources/sound/trials/audio_stim_human47.mp3,60fd50f818928248f1a88449,24,Female,Right handed,2021-07-26_21h00.03.260,MA Experiment 2,2021.1.2,Win32,59.99880002,1,0,34,28,1,,,,,
1.2642,response_2,longValid,NOVEL,CROCODILE,,,,,,ROBBER,RATTLESNAKE,long,resources/sound/trials/audio_stim_human64.mp3,60fd50f818928248f1a88449,24,Female,Right handed,2021-07-26_21h00.03.260,MA Experiment 2,2021.1.2,Win32,59.99880002,1,1,35,32,1,,,,,
1.2504,response_2,shortFoil,POLO,REFEREE,,,,,,MINER,EMERALD,long,resources/sound/trials/audio_stim_human6.mp3,60fd50f818928248f1a88449,24,Female,Right handed,2021-07-26_21h00.03.260,MA Experiment 2,2021.1.2,Win32,59.99880002,1,2,36,30,1,,,,,
1.2479,response_1,,BISHOP,HOSPITAL,,,,,,JUGGLER,DANDELION,short,resources/sound/catchTrials/audio_control_human_project09.mp3,60fd50f818928248f1a88449,24,Female,Right handed,2021-07-26_21h00.03.260,MA Experiment 2,2021.1.2,Win32,59.99880002,,,,,,0,3,3,15,1
0.9488,response_1,shortValid,INVOICE,POLICEMAN,,,,,,DAYLIGHT,MATERIAL,long,resources/sound/trials/audio_stim_human42.mp3,60fd50f818928248f1a88449,24,Female,Right handed,2021-07-26_21h00.03.260,MA Experiment 2,2021.1.2,Win32,59.99880002,1,3,37,26,1,,,,,
1.5644,response_1,longValid,NAPKIN,CHOCOLATE,,,,,,ATHLETE,IVORY,long,resources/sound/trials/audio_stim_comp57.mp3,60fd50f818928248f1a88449,24,Female,Right handed,2021-07-26_21h00.03.260,MA Experiment 2,2021.1.2,Win32,59.99880002,1,4,38,22,1,,,,,
1.5958,response_2,shortFoil,VAPOUR,MICROSCOPE,,,,,,DRIZZLE,CARDINAL,long,resources/sound/trials/audio_stim_comp69.mp3,60fd50f818928248f1a88449,24,Female,Right handed,2021-07-26_21h00.03.260,MA Experiment 2,2021.1.2,Win32,59.99880002,1,5,39,17,1,,,,,
3.3616,response_2,shortFoil,PERSON,PROPELLER,,,,,,SACRED,GALAXY,short,resources/sound/trials/audio_stim_comp1.mp3,60fd50f818928248f1a88449,24,Female,Right handed,2021-07-26_21h00.03.260,MA Experiment 2,2021.1.2,Win32,59.99880002,1,6,40,7,1,,,,,
1.7632,response_2,,CURFEW,INJURY,,,,,,NAVY,RECTANGLE,long,resources/sound/catchTrials/audio_control_human_project06.mp3,60fd50f818928248f1a88449,24,Female,Right handed,2021-07-26_21h00.03.260,MA Experiment 2,2021.1.2,Win32,59.99880002,,,,,,0,13,13,30,1
1.2961,response_1,shortValid,CRYSTAL,FISHERMAN,,,,,,MARBLE,CUSTOMER,long,resources/sound/trials/audio_stim_comp65.mp3,60fd50f818928248f1a88449,24,Female,Right handed,2021-07-26_21h00.03.260,MA Experiment 2,2021.1.2,Win32,59.99880002,1,7,41,21,1,,,,,
1.296,response_2,longValid,SADDLE,MECHANIC,,,,,,BRAINSTORM,GREEN NEEDLE,short,resources/sound/trials/audio_stim_original.mp3,60fd50f818928248f1a88449,24,Female,Right handed,2021-07-26_21h00.03.260,MA Experiment 2,2021.1.2,Win32,59.99880002,1,8,42,16,1,,,,,
1.3644,response_2,shortValid,LIQUID,JANITOR,,,,,,CONCRETE,ENEMY,long,resources/sound/trials/audio_stim_human67.mp3,60fd50f818928248f1a88449,24,Female,Right handed,2021-07-26_21h00.03.260,MA Experiment 2,2021.1.2,Win32,59.99880002,1,9,43,27,1,,,,,
1.3618,response_1,longFoil,KERNEL,FIREWOOD,,,,,,MINER,EMERALD,long,resources/sound/trials/audio_stim_comp6.mp3,60fd50f818928248f1a88449,24,Female,Right handed,2021-07-26_21h00.03.260,MA Experiment 2,2021.1.2,Win32,59.99880002,1,10,44,18,1,,,,,
1.9282,response_2,,DWELLER,ENVELOPE,,,,,,CORNER,ENGINEER,short,resources/sound/catchTrials/audio_control_comp_project14.mp3,60fd50f818928248f1a88449,24,Female,Right handed,2021-07-26_21h00.03.260,MA Experiment 2,2021.1.2,Win32,59.99880002,,,,,,0,30,30,1,1
1.1959,response_1,shortFoil,WRITING,INFECTION,,,,,,ATHLETE,IVORY,short,resources/sound/trials/audio_stim_comp57.mp3,60fd50f818928248f1a88449,24,Female,Right handed,2021-07-26_21h00.03.260,MA Experiment 2,2021.1.2,Win32,59.99880002,1,11,45,5,1,,,,,
1.2154,response_2,shortFoil,SHOULDER,ORNAMENT,,,,,,RUBBER,PROPERTY,long,resources/sound/trials/audio_stim_human0.mp3,60fd50f818928248f1a88449,24,Female,Right handed,2021-07-26_21h00.03.260,MA Experiment 2,2021.1.2,Win32,59.99880002,1,12,46,29,1,,,,,
1.3489,response_1,longFoil,TUMBLE,FURNITURE,,,,,,MARBLE,CUSTOMER,short,resources/sound/trials/audio_stim_comp65.mp3,60fd50f818928248f1a88449,24,Female,Right handed,2021-07-26_21h00.03.260,MA Experiment 2,2021.1.2,Win32,59.99880002,1,13,47,4,1,,,,,
1.4322,response_1,shortFoil,SINGER,FACTORY,,,,,,WHISTLE,TREASURER,short,resources/sound/trials/audio_stim_comp12.mp3,60fd50f818928248f1a88449,24,Female,Right handed,2021-07-26_21h00.03.260,MA Experiment 2,2021.1.2,Win32,59.99880002,1,14,48,3,1,,,,,
1.0335,response_2,,OFFICE,CLARINET,,,,,,JOURNAL,ROBBERY,long,resources/sound/catchTrials/audio_control_human_project02.mp3,60fd50f818928248f1a88449,24,Female,Right handed,2021-07-26_21h00.03.260,MA Experiment 2,2021.1.2,Win32,59.99880002,,,,,,0,11,11,29,1
2.8953,response_1,shortValid,LIGHTNING,GOVERNMENT,,,,,,WHISTLE,TREASURER,long,resources/sound/trials/audio_stim_comp12.mp3,60fd50f818928248f1a88449,24,Female,Right handed,2021-07-26_21h00.03.260,MA Experiment 2,2021.1.2,Win32,59.99880002,1,15,49,20,1,,,,,
1.529,response_2,shortFoil,PODIUM,CONVENTION,,,,,,DRIZZLE,CARDINAL,short,resources/sound/trials/audio_stim_comp69.mp3,60fd50f818928248f1a88449,24,Female,Right handed,2021-07-26_21h00.03.260,MA Experiment 2,2021.1.2,Win32,59.99880002,1,16,50,0,1,,,,,
1.5301,response_1,longValid,SCOOTER,BEVERAGE,,,,,,HARDWARE,OVERCOAT,short,resources/sound/trials/audio_stim_human35.mp3,60fd50f818928248f1a88449,24,Female,Right handed,2021-07-26_21h00.03.260,MA Experiment 2,2021.1.2,Win32,59.99880002,1,17,51,8,1,,,,,
1.1459,response_2,longValid,DIAL,ICICLE,,,,,,BRAINSTORM,GREEN NEEDLE,long,resources/sound/trials/audio_stim_original.mp3,60fd50f818928248f1a88449,24,Female,Right handed,2021-07-26_21h00.03.260,MA Experiment 2,2021.1.2,Win32,59.99880002,1,18,52,33,1,,,,,
1.1464,response_1,,BUTTER,GYMNASTICS,,,,,,POISON,REVOLVER,short,resources/sound/catchTrials/audio_control_human_project01.mp3,60fd50f818928248f1a88449,24,Female,Right handed,2021-07-26_21h00.03.260,MA Experiment 2,2021.1.2,Win32,59.99880002,,,,,,0,29,29,9,1
1.3306,response_2,longFoil,MEDICINE,POLIO,,,,,,PARTY,SANCTUARY,long,resources/sound/trials/audio_stim_human50.mp3,60fd50f818928248f1a88449,24,Female,Right handed,2021-07-26_21h00.03.260,MA Experiment 2,2021.1.2,Win32,59.99880002,1,19,53,31,1,,,,,
1.1958,response_2,shortValid,CANTEEN,OPENING,,,,,,ROBBER,RATTLESNAKE,short,resources/sound/trials/audio_stim_human64.mp3,60fd50f818928248f1a88449,24,Female,Right handed,2021-07-26_21h00.03.260,MA Experiment 2,2021.1.2,Win32,59.99880002,1,20,54,15,1,,,,,
1.4792,response_1,shortValid,CHIPMUNK,AMBULANCE,,,,,,WORKER,VISITOR,short,resources/sound/trials/audio_stim_comp17.mp3,60fd50f818928248f1a88449,24,Female,Right handed,2021-07-26_21h00.03.260,MA Experiment 2,2021.1.2,Win32,59.99880002,1,21,55,6,1,,,,,
1.1791,response_2,shortFoil,LOBSTER,MOSQUITO,,,,,,MINER,EMERALD,short,resources/sound/trials/audio_stim_human6.mp3,60fd50f818928248f1a88449,24,Female,Right handed,2021-07-26_21h00.03.260,MA Experiment 2,2021.1.2,Win32,59.99880002,1,22,56,13,1,,,,,
1.1629,response_1,,MURDER,MINERAL,,,,,,VIOLET,LUBRICANT,long,resources/sound/catchTrials/audio_control_comp_project07.mp3,60fd50f818928248f1a88449,24,Female,Right handed,2021-07-26_21h00.03.260,MA Experiment 2,2021.1.2,Win32,59.99880002,,,,,,0,28,28,19,1
1.0798,response_2,shortFoil,SHEEPSKIN,CINNAMON,,,,,,PARTY,SANCTUARY,short,resources/sound/trials/audio_stim_human50.mp3,60fd50f818928248f1a88449,24,Female,Right handed,2021-07-26_21h00.03.260,MA Experiment 2,2021.1.2,Win32,59.99880002,1,23,57,14,1,,,,,
1.1618,response_1,shortFoil,DUEL,NEIGHBOURHOOD,,,,,,DAYLIGHT,MATERIAL,short,resources/sound/trials/audio_stim_human42.mp3,60fd50f818928248f1a88449,24,Female,Right handed,2021-07-26_21h00.03.260,MA Experiment 2,2021.1.2,Win32,59.99880002,1,24,58,9,1,,,,,
1.2263,response_2,shortFoil,HAMSTER,INDUSTRY,,,,,,RECEIPT,LIMOUSINE,long,resources/sound/trials/audio_stim_comp40.mp3,60fd50f818928248f1a88449,24,Female,Right handed,2021-07-26_21h00.03.260,MA Experiment 2,2021.1.2,Win32,59.99880002,1,25,59,19,1,,,,,
1.9627,response_1,shortFoil,TRAITOR,ATTENDANT,,,,,,SACRED,GALAXY,long,resources/sound/trials/audio_stim_comp1.mp3,60fd50f818928248f1a88449,24,Female,Right handed,2021-07-26_21h00.03.260,MA Experiment 2,2021.1.2,Win32,59.99880002,1,26,60,24,1,,,,,
1.6617,response_1,,VESSEL,SAXOPHONE,,,,,,JUGGLER,DANDELION,long,resources/sound/catchTrials/audio_control_human_project09.mp3,60fd50f818928248f1a88449,24,Female,Right handed,2021-07-26_21h00.03.260,MA Experiment 2,2021.1.2,Win32,59.99880002,,,,,,0,5,5,31,1
1.3455,response_2,longValid,TWEEZER,TEMPERATURE,,,,,,HARDWARE,OVERCOAT,long,resources/sound/trials/audio_stim_human35.mp3,60fd50f818928248f1a88449,24,Female,Right handed,2021-07-26_21h00.03.260,MA Experiment 2,2021.1.2,Win32,59.99880002,1,27,61,25,1,,,,,
1.3467,response_2,shortValid,SODA,SETTLEMENT,,,,,,WORKER,VISITOR,long,resources/sound/trials/audio_stim_comp17.mp3,60fd50f818928248f1a88449,24,Female,Right handed,2021-07-26_21h00.03.260,MA Experiment 2,2021.1.2,Win32,59.99880002,1,28,62,23,1,,,,,
1.5798,response_1,shortValid,RUSTY,APPLIANCE,,,,,,RECEIPT,LIMOUSINE,short,resources/sound/trials/audio_stim_comp40.mp3,60fd50f818928248f1a88449,24,Female,Right handed,2021-07-26_21h00.03.260,MA Experiment 2,2021.1.2,Win32,59.99880002,1,29,63,2,1,,,,,
1.3801,response_1,shortValid,WAFER,INTERVIEW,,,,,,PAINTER,VEHICLE,short,resources/sound/trials/audio_stim_human47.mp3,60fd50f818928248f1a88449,24,Female,Right handed,2021-07-26_21h00.03.260,MA Experiment 2,2021.1.2,Win32,59.99880002,1,30,64,11,1,,,,,
1.3624,response_2,,MUSCLE,MINISTER,,,,,,IRIS,VIOLIN,short,resources/sound/catchTrials/audio_control_comp_project12.mp3,60fd50f818928248f1a88449,24,Female,Right handed,2021-07-26_21h00.03.260,MA Experiment 2,2021.1.2,Win32,59.99880002,,,,,,0,14,14,4,1
2.0963,response_2,shortValid,TORTURE,CITIZEN,,,,,,CONCRETE,ENEMY,short,resources/sound/trials/audio_stim_human67.mp3,60fd50f818928248f1a88449,24,Female,Right handed,2021-07-26_21h00.03.260,MA Experiment 2,2021.1.2,Win32,59.99880002,1,31,65,10,1,,,,,
1.2608,response_2,shortValid,GRADUATE,COMMITTEE,,,,,,MINER,EMERALD,short,resources/sound/trials/audio_stim_comp6.mp3,60fd50f818928248f1a88449,24,Female,Right handed,2021-07-26_21h00.03.260,MA Experiment 2,2021.1.2,Win32,59.99880002,1,32,66,1,1,,,,,
1.1153,response_2,longValid,DANCER,PROFESSOR,,,,,,RUBBER,PROPERTY,short,resources/sound/trials/audio_stim_human0.mp3,60fd50f818928248f1a88449,24,Female,Right handed,2021-07-26_21h00.03.260,MA Experiment 2,2021.1.2,Win32,59.99880002,1,33,67,12,1,,,,,
1.6395,response_1,longValid,FERTILE,CIGARETTE,,,,,,CONCRETE,ENEMY,long,resources/sound/trials/audio_stim_human67.mp3,60fd50f818928248f1a88449,24,Female,Right handed,2021-07-26_21h00.03.260,MA Experiment 2,2021.1.2,Win32,59.99880002,2,0,68,27,1,,,,,
1.447,response_1,shortValid,HAMMER,HURRICANE,,,,,,WHISTLE,TREASURER,short,resources/sound/trials/audio_stim_comp12.mp3,60fd50f818928248f1a88449,24,Female,Right handed,2021-07-26_21h00.03.260,MA Experiment 2,2021.1.2,Win32,59.99880002,2,1,69,3,1,,,,,
1.3215,response_2,shortFoil,PATIENT,POLIO,,,,,,BRAINSTORM,GREEN NEEDLE,short,resources/sound/trials/audio_stim_original.mp3,60fd50f818928248f1a88449,24,Female,Right handed,2021-07-26_21h00.03.260,MA Experiment 2,2021.1.2,Win32,59.99880002,2,2,70,16,1,,,,,
1.1629,response_2,,DECOY,DISSECTION,,,,,,SPINACH,APRICOT,long,resources/sound/catchTrials/audio_control_comp_project18.mp3,60fd50f818928248f1a88449,24,Female,Right handed,2021-07-26_21h00.03.260,MA Experiment 2,2021.1.2,Win32,59.99880002,,,,,,0,21,21,21,1
2.0554,response_1,longFoil,WAFER,PROJECTOR,,,,,,SACRED,GALAXY,long,resources/sound/trials/audio_stim_comp1.mp3,60fd50f818928248f1a88449,24,Female,Right handed,2021-07-26_21h00.03.260,MA Experiment 2,2021.1.2,Win32,59.99880002,2,3,71,24,1,,,,,
1.1132,response_2,longFoil,VESSEL,UMBRELLA,,,,,,PARTY,SANCTUARY,short,resources/sound/trials/audio_stim_human50.mp3,60fd50f818928248f1a88449,24,Female,Right handed,2021-07-26_21h00.03.260,MA Experiment 2,2021.1.2,Win32,59.99880002,2,4,72,14,1,,,,,
1.2906,response_2,longValid,NOVEL,FURNITURE,,,,,,DRIZZLE,CARDINAL,long,resources/sound/trials/audio_stim_comp69.mp3,60fd50f818928248f1a88449,24,Female,Right handed,2021-07-26_21h00.03.260,MA Experiment 2,2021.1.2,Win32,59.99880002,2,5,73,17,1,,,,,
1.8822,response_1,longFoil,VILLAGE,STRAWBERRY,,,,,,WHISTLE,TREASURER,long,resources/sound/trials/audio_stim_comp12.mp3,60fd50f818928248f1a88449,24,Female,Right handed,2021-07-26_21h00.03.260,MA Experiment 2,2021.1.2,Win32,59.99880002,2,6,74,20,1,,,,,
1.2804,response_2,,BUTTER,CAPITAL,,,,,,IRIS,VIOLIN,long,resources/sound/catchTrials/audio_control_comp_project12.mp3,60fd50f818928248f1a88449,24,Female,Right handed,2021-07-26_21h00.03.260,MA Experiment 2,2021.1.2,Win32,59.99880002,,,,,,0,6,6,20,1
1.8975,response_2,longValid,GRADUATE,POLICEMAN,,,,,,MINER,EMERALD,long,resources/sound/trials/audio_stim_comp6.mp3,60fd50f818928248f1a88449,24,Female,Right handed,2021-07-26_21h00.03.260,MA Experiment 2,2021.1.2,Win32,59.99880002,2,7,75,18,1,,,,,
1.6447,response_2,longValid,MURDER,GALLERY,,,,,,MARBLE,CUSTOMER,short,resources/sound/trials/audio_stim_comp65.mp3,60fd50f818928248f1a88449,24,Female,Right handed,2021-07-26_21h00.03.260,MA Experiment 2,2021.1.2,Win32,59.99880002,2,8,76,4,1,,,,,
1.6472,response_2,shortValid,CEREAL,AMBULANCE,,,,,,RUBBER,PROPERTY,long,resources/sound/trials/audio_stim_human0.mp3,60fd50f818928248f1a88449,24,Female,Right handed,2021-07-26_21h00.03.260,MA Experiment 2,2021.1.2,Win32,59.99880002,2,9,77,29,1,,,,,
1.5492,response_2,longFoil,BEETLE,CANDLELIGHT,,,,,,HARDWARE,OVERCOAT,short,resources/sound/trials/audio_stim_human35.mp3,60fd50f818928248f1a88449,24,Female,Right handed,2021-07-26_21h00.03.260,MA Experiment 2,2021.1.2,Win32,59.99880002,2,10,78,8,1,,,,,
1.4938,response_2,,EVENING,GYMNASTICS,,,,,,SPINACH,APRICOT,short,resources/sound/catchTrials/audio_control_comp_project18.mp3,60fd50f818928248f1a88449,24,Female,Right handed,2021-07-26_21h00.03.260,MA Experiment 2,2021.1.2,Win32,59.99880002,,,,,,0,2,2,5,1
1.2824,response_2,shortValid,KENNEL,CIGARETTE,,,,,,DRIZZLE,CARDINAL,short,resources/sound/trials/audio_stim_comp69.mp3,60fd50f818928248f1a88449,24,Female,Right handed,2021-07-26_21h00.03.260,MA Experiment 2,2021.1.2,Win32,59.99880002,2,11,79,0,1,,,,,
1.7654,response_1,longValid,MURAL,MERCURY,,,,,,WORKER,VISITOR,long,resources/sound/trials/audio_stim_comp17.mp3,60fd50f818928248f1a88449,24,Female,Right handed,2021-07-26_21h00.03.260,MA Experiment 2,2021.1.2,Win32,59.99880002,2,12,80,23,1,,,,,
1.5147,response_1,longValid,WRITING,ORNAMENT,,,,,,PAINTER,VEHICLE,short,resources/sound/trials/audio_stim_human47.mp3,60fd50f818928248f1a88449,24,Female,Right handed,2021-07-26_21h00.03.260,MA Experiment 2,2021.1.2,Win32,59.99880002,2,13,81,11,1,,,,,
1.4483,response_1,shortValid,ACRE,OXYGEN,,,,,,ATHLETE,IVORY,long,resources/sound/trials/audio_stim_comp57.mp3,60fd50f818928248f1a88449,24,Female,Right handed,2021-07-26_21h00.03.260,MA Experiment 2,2021.1.2,Win32,59.99880002,2,14,82,22,1,,,,,
1.6938,response_2,,FERTILE,INSTRUCTOR,,,,,,JOURNAL,ROBBERY,short,resources/sound/catchTrials/audio_control_human_project02.mp3,60fd50f818928248f1a88449,24,Female,Right handed,2021-07-26_21h00.03.260,MA Experiment 2,2021.1.2,Win32,59.99880002,,,,,,0,4,4,13,1
1.3931,response_2,longFoil,FAIRY,MINISTER,,,,,,RUBBER,PROPERTY,short,resources/sound/trials/audio_stim_human0.mp3,60fd50f818928248f1a88449,24,Female,Right handed,2021-07-26_21h00.03.260,MA Experiment 2,2021.1.2,Win32,59.99880002,2,15,83,12,1,,,,,
1.2809,response_2,longFoil,CANTEEN,INFECTION,,,,,,ROBBER,RATTLESNAKE,long,resources/sound/trials/audio_stim_human64.mp3,60fd50f818928248f1a88449,24,Female,Right handed,2021-07-26_21h00.03.260,MA Experiment 2,2021.1.2,Win32,59.99880002,2,16,84,32,1,,,,,
1.5638,response_2,shortFoil,BISHOP,ATTENDANT,,,,,,WORKER,VISITOR,short,resources/sound/trials/audio_stim_comp17.mp3,60fd50f818928248f1a88449,24,Female,Right handed,2021-07-26_21h00.03.260,MA Experiment 2,2021.1.2,Win32,59.99880002,2,17,85,6,1,,,,,
2.2483,response_2,shortFoil,FOREARM,CAMERA,,,,,,RECEIPT,LIMOUSINE,short,resources/sound/trials/audio_stim_comp40.mp3,60fd50f818928248f1a88449,24,Female,Right handed,2021-07-26_21h00.03.260,MA Experiment 2,2021.1.2,Win32,59.99880002,2,18,86,2,1,,,,,
1.6295,response_2,,DANCER,CARNATION,,,,,,CORNER,ENGINEER,long,resources/sound/catchTrials/audio_control_comp_project14.mp3,60fd50f818928248f1a88449,24,Female,Right handed,2021-07-26_21h00.03.260,MA Experiment 2,2021.1.2,Win32,59.99880002,,,,,,0,20,20,17,1
0.9958,response_1,longValid,DOORWAY,ACROBAT,,,,,,DAYLIGHT,MATERIAL,long,resources/sound/trials/audio_stim_human42.mp3,60fd50f818928248f1a88449,24,Female,Right handed,2021-07-26_21h00.03.260,MA Experiment 2,2021.1.2,Win32,59.99880002,2,19,87,26,1,,,,,
1.0802,response_1,shortValid,LIGHTNING,PROFESSOR,,,,,,ATHLETE,IVORY,short,resources/sound/trials/audio_stim_comp57.mp3,60fd50f818928248f1a88449,24,Female,Right handed,2021-07-26_21h00.03.260,MA Experiment 2,2021.1.2,Win32,59.99880002,2,20,88,5,1,,,,,
1.4468,response_2,longFoil,DWELLER,TEMPERATURE,,,,,,CONCRETE,ENEMY,short,resources/sound/trials/audio_stim_human67.mp3,60fd50f818928248f1a88449,24,Female,Right handed,2021-07-26_21h00.03.260,MA Experiment 2,2021.1.2,Win32,59.99880002,2,21,89,10,1,,,,,
1.8161,response_2,shortValid,CAPTAIN,ALPHABET,,,,,,RECEIPT,LIMOUSINE,long,resources/sound/trials/audio_stim_comp40.mp3,60fd50f818928248f1a88449,24,Female,Right handed,2021-07-26_21h00.03.260,MA Experiment 2,2021.1.2,Win32,59.99880002,2,22,90,19,1,,,,,
0.9779,response_2,,LIQUID,VINEGAR,,,,,,NAVY,RECTANGLE,short,resources/sound/catchTrials/audio_control_comp_project06.mp3,60fd50f818928248f1a88449,24,Female,Right handed,2021-07-26_21h00.03.260,MA Experiment 2,2021.1.2,Win32,59.99880002,,,,,,0,8,8,6,1
1.6308,response_2,longFoil,CABIN,ASBESTOS,,,,,,MINER,EMERALD,short,resources/sound/trials/audio_stim_human6.mp3,60fd50f818928248f1a88449,24,Female,Right handed,2021-07-26_21h00.03.260,MA Experiment 2,2021.1.2,Win32,59.99880002,2,23,91,13,1,,,,,
1.3127,response_1,shortValid,NEIGHBOUR,CATHEDRAL,,,,,,DAYLIGHT,MATERIAL,short,resources/sound/trials/audio_stim_human42.mp3,60fd50f818928248f1a88449,24,Female,Right handed,2021-07-26_21h00.03.260,MA Experiment 2,2021.1.2,Win32,59.99880002,2,24,92,9,1,,,,,
1.3002,response_1,longFoil,LEADER,MECHANIC,,,,,,HARDWARE,OVERCOAT,long,resources/sound/trials/audio_stim_human35.mp3,60fd50f818928248f1a88449,24,Female,Right handed,2021-07-26_21h00.03.260,MA Experiment 2,2021.1.2,Win32,59.99880002,2,25,93,25,1,,,,,
2.1442,response_1,shortValid,NAPKIN,MINERAL,,,,,,PAINTER,VEHICLE,long,resources/sound/trials/audio_stim_human47.mp3,60fd50f818928248f1a88449,24,Female,Right handed,2021-07-26_21h00.03.260,MA Experiment 2,2021.1.2,Win32,59.99880002,2,26,94,28,1,,,,,
1.3295,response_1,,SULPHUR,LEMONADE,,,,,,VIOLET,LUBRICANT,long,resources/sound/catchTrials/audio_control_human_project07.mp3,60fd50f818928248f1a88449,24,Female,Right handed,2021-07-26_21h00.03.260,MA Experiment 2,2021.1.2,Win32,59.99880002,,,,,,0,19,19,28,1
1.5078,response_2,shortFoil,OLIVE,ENVELOPE,,,,,,ROBBER,RATTLESNAKE,short,resources/sound/trials/audio_stim_human64.mp3,60fd50f818928248f1a88449,24,Female,Right handed,2021-07-26_21h00.03.260,MA Experiment 2,2021.1.2,Win32,59.99880002,2,27,95,15,1,,,,,
1.1988,response_2,longFoil,HURDLE,PHYSICIAN,,,,,,MINER,EMERALD,long,resources/sound/trials/audio_stim_human6.mp3,60fd50f818928248f1a88449,24,Female,Right handed,2021-07-26_21h00.03.260,MA Experiment 2,2021.1.2,Win32,59.99880002,2,28,96,30,1,,,,,
1.2962,response_2,shortValid,RUSTY,FISHERMAN,,,,,,BRAINSTORM,GREEN NEEDLE,long,resources/sound/trials/audio_stim_original.mp3,60fd50f818928248f1a88449,24,Female,Right handed,2021-07-26_21h00.03.260,MA Experiment 2,2021.1.2,Win32,59.99880002,2,29,97,33,1,,,,,
1.2961,response_2,longValid,CIGAR,HEADQUARTERS,,,,,,SACRED,GALAXY,short,resources/sound/trials/audio_stim_comp1.mp3,60fd50f818928248f1a88449,24,Female,Right handed,2021-07-26_21h00.03.260,MA Experiment 2,2021.1.2,Win32,59.99880002,2,30,98,7,1,,,,,
1.063,response_2,,WINDOW,INSTRUMENT,,,,,,HOBBY,COLONY,long,resources/sound/catchTrials/audio_control_comp_project04.mp3,60fd50f818928248f1a88449,24,Female,Right handed,2021-07-26_21h00.03.260,MA Experiment 2,2021.1.2,Win32,59.99880002,,,,,,0,10,10,18,1
0.8089,response_2,shortValid,PICTURE,MOSQUITO,,,,,,PARTY,SANCTUARY,long,resources/sound/trials/audio_stim_human50.mp3,60fd50f818928248f1a88449,24,Female,Right handed,2021-07-26_21h00.03.260,MA Experiment 2,2021.1.2,Win32,59.99880002,2,31,99,31,1,,,,,
1.5673,response_2,longFoil,CURFEW,ANTIQUE,,,,,,MINER,EMERALD,short,resources/sound/trials/audio_stim_comp6.mp3,60fd50f818928248f1a88449,24,Female,Right handed,2021-07-26_21h00.03.260,MA Experiment 2,2021.1.2,Win32,59.99880002,2,32,100,1,1,,,,,
1.9149,response_1,longValid,PERSON,CORRIDOR,,,,,,MARBLE,CUSTOMER,long,resources/sound/trials/audio_stim_comp65.mp3,60fd50f818928248f1a88449,24,Female,Right handed,2021-07-26_21h00.03.260,MA Experiment 2,2021.1.2,Win32,59.99880002,2,33,101,21,1,,,,,
1.4787,response_2,shortValid,TEMPLE,SETTLEMENT,,,,,,HARDWARE,OVERCOAT,long,resources/sound/trials/audio_stim_human35.mp3,60fd50f818928248f1a88449,24,Female,Right handed,2021-07-26_21h00.03.260,MA Experiment 2,2021.1.2,Win32,59.99880002,3,0,102,25,1,,,,,
1.357,response_4,shortFoil,NECKLACE,ENAMEL,,,,,,MARBLE,CUSTOMER,long,resources/sound/trials/audio_stim_comp65.mp3,60fd50f818928248f1a88449,24,Female,Right handed,2021-07-26_21h00.03.260,MA Experiment 2,2021.1.2,Win32,59.99880002,3,1,103,21,1,,,,,
1.3129,response_2,longValid,SHOULDER,MICROSCOPE,,,,,,RECEIPT,LIMOUSINE,short,resources/sound/trials/audio_stim_comp40.mp3,60fd50f818928248f1a88449,24,Female,Right handed,2021-07-26_21h00.03.260,MA Experiment 2,2021.1.2,Win32,59.99880002,3,2,104,2,1,,,,,
1.2757,response_1,,PIANO,INJURY,,,,,,POISON,REVOLVER,long,resources/sound/catchTrials/audio_control_human_project01.mp3,60fd50f818928248f1a88449,24,Female,Right handed,2021-07-26_21h00.03.260,MA Experiment 2,2021.1.2,Win32,59.99880002,,,,,,0,24,24,25,1
1.3103,response_1,shortValid,PRINCESS,SAXOPHONE,,,,,,SACRED,GALAXY,long,resources/sound/trials/audio_stim_comp1.mp3,60fd50f818928248f1a88449,24,Female,Right handed,2021-07-26_21h00.03.260,MA Experiment 2,2021.1.2,Win32,59.99880002,3,3,105,24,1,,,,,
1.5459,response_2,shortFoil,SHEEPSKIN,NEWSPAPER,,,,,,RUBBER,PROPERTY,short,resources/sound/trials/audio_stim_human0.mp3,60fd50f818928248f1a88449,24,Female,Right handed,2021-07-26_21h00.03.260,MA Experiment 2,2021.1.2,Win32,59.99880002,3,4,106,12,1,,,,,
1.7786,response_1,longFoil,PIPING,FAMILY,,,,,,WHISTLE,TREASURER,short,resources/sound/trials/audio_stim_comp12.mp3,60fd50f818928248f1a88449,24,Female,Right handed,2021-07-26_21h00.03.260,MA Experiment 2,2021.1.2,Win32,59.99880002,3,5,107,3,1,,,,,
2.2134,response_1,shortValid,INCOME,HOSPITAL,,,,,,ROBBER,RATTLESNAKE,long,resources/sound/trials/audio_stim_human64.mp3,60fd50f818928248f1a88449,24,Female,Right handed,2021-07-26_21h00.03.260,MA Experiment 2,2021.1.2,Win32,59.99880002,3,6,108,32,1,,,,,
1.3628,response_2,,STATION,MOLECULE,,,,,,HOBBY,COLONY,long,resources/sound/catchTrials/audio_control_human_project04.mp3,60fd50f818928248f1a88449,24,Female,Right handed,2021-07-26_21h00.03.260,MA Experiment 2,2021.1.2,Win32,59.99880002,,,,,,0,31,31,27,1
1.5142,response_2,shortFoil,MORNING,CONVENTION,,,,,,MINER,EMERALD,short,resources/sound/trials/audio_stim_comp6.mp3,60fd50f818928248f1a88449,24,Female,Right handed,2021-07-26_21h00.03.260,MA Experiment 2,2021.1.2,Win32,59.99880002,3,7,109,1,1,,,,,
1.2818,response_2,shortFoil,LOBSTER,INSTITUTE,,,,,,WORKER,VISITOR,long,resources/sound/trials/audio_stim_comp17.mp3,60fd50f818928248f1a88449,24,Female,Right handed,2021-07-26_21h00.03.260,MA Experiment 2,2021.1.2,Win32,59.99880002,3,8,110,23,1,,,,,
1.5137,response_1,shortValid,SOFA,INTERVIEW,,,,,,DRIZZLE,CARDINAL,long,resources/sound/trials/audio_stim_comp69.mp3,60fd50f818928248f1a88449,24,Female,Right handed,2021-07-26_21h00.03.260,MA Experiment 2,2021.1.2,Win32,59.99880002,3,9,111,17,1,,,,,
1.3952,response_1,shortFoil,WIRE,ADMIRAL,,,,,,HARDWARE,OVERCOAT,short,resources/sound/trials/audio_stim_human35.mp3,60fd50f818928248f1a88449,24,Female,Right handed,2021-07-26_21h00.03.260,MA Experiment 2,2021.1.2,Win32,59.99880002,3,10,112,8,1,,,,,
1.3138,response_2,,DIAL,LECTURER,,,,,,HOBBY,COLONY,short,resources/sound/catchTrials/audio_control_human_project04.mp3,60fd50f818928248f1a88449,24,Female,Right handed,2021-07-26_21h00.03.260,MA Experiment 2,2021.1.2,Win32,59.99880002,,,,,,0,15,15,11,1
1.3964,response_2,longValid,TWEEZER,GOVERNMENT,,,,,,PARTY,SANCTUARY,long,resources/sound/trials/audio_stim_human50.mp3,60fd50f818928248f1a88449,24,Female,Right handed,2021-07-26_21h00.03.260,MA Experiment 2,2021.1.2,Win32,59.99880002,3,11,113,31,1,,,,,
1.8085,response_1,shortValid,DIVING,REFEREE,,,,,,MINER,EMERALD,long,resources/sound/trials/audio_stim_comp6.mp3,60fd50f818928248f1a88449,24,Female,Right handed,2021-07-26_21h00.03.260,MA Experiment 2,2021.1.2,Win32,59.99880002,3,12,114,18,1,,,,,
1.5483,response_2,shortValid,SODA,GINGERBREAD,,,,,,SACRED,GALAXY,short,resources/sound/trials/audio_stim_comp1.mp3,60fd50f818928248f1a88449,24,Female,Right handed,2021-07-26_21h00.03.260,MA Experiment 2,2021.1.2,Win32,59.99880002,3,13,115,7,1,,,,,
1.2791,response_2,longFoil,BURNER,BEVERAGE,,,,,,DRIZZLE,CARDINAL,short,resources/sound/trials/audio_stim_comp69.mp3,60fd50f818928248f1a88449,24,Female,Right handed,2021-07-26_21h00.03.260,MA Experiment 2,2021.1.2,Win32,59.99880002,3,14,116,0,1,,,,,
1.4258,response_2,,EARTHWORM,EMULSION,,,,,,NAVY,RECTANGLE,short,resources/sound/catchTrials/audio_control_human_project06.mp3,60fd50f818928248f1a88449,24,Female,Right handed,2021-07-26_21h00.03.260,MA Experiment 2,2021.1.2,Win32,59.99880002,,,,,,0,0,0,14,1
1.4802,response_1,shortFoil,FEVER,TANGERINE,,,,,,DAYLIGHT,MATERIAL,long,resources/sound/trials/audio_stim_human42.mp3,60fd50f818928248f1a88449,24,Female,Right handed,2021-07-26_21h00.03.260,MA Experiment 2,2021.1.2,Win32,59.99880002,3,15,117,26,1,,,,,
1.2826,response_2,longValid,DUEL,INDUSTRY,,,,,,RUBBER,PROPERTY,long,resources/sound/trials/audio_stim_human0.mp3,60fd50f818928248f1a88449,24,Female,Right handed,2021-07-26_21h00.03.260,MA Experiment 2,2021.1.2,Win32,59.99880002,3,16,118,29,1,,,,,
1.2789,response_2,shortFoil,CHIPMUNK,COMMITTEE,,,,,,CONCRETE,ENEMY,long,resources/sound/trials/audio_stim_human67.mp3,60fd50f818928248f1a88449,24,Female,Right handed,2021-07-26_21h00.03.260,MA Experiment 2,2021.1.2,Win32,59.99880002,3,17,119,27,1,,,,,
2.3622,response_1,longFoil,NATIVE,DESTROYER,,,,,,ATHLETE,IVORY,short,resources/sound/trials/audio_stim_comp57.mp3,60fd50f818928248f1a88449,24,Female,Right handed,2021-07-26_21h00.03.260,MA Experiment 2,2021.1.2,Win32,59.99880002,3,18,120,5,1,,,,,
1.3464,response_2,,KERNEL,PHOTOGRAPH,,,,,,CORNER,ENGINEER,long,resources/sound/catchTrials/audio_control_human_project14.mp3,60fd50f818928248f1a88449,24,Female,Right handed,2021-07-26_21h00.03.260,MA Experiment 2,2021.1.2,Win32,59.99880002,,,,,,0,12,12,26,1
1.2956,response_2,shortFoil,FATHER,CLARINET,,,,,,CONCRETE,ENEMY,short,resources/sound/trials/audio_stim_human67.mp3,60fd50f818928248f1a88449,24,Female,Right handed,2021-07-26_21h00.03.260,MA Experiment 2,2021.1.2,Win32,59.99880002,3,19,121,10,1,,,,,
1.4921,response_2,longFoil,WALRUS,SPECIALIST,,,,,,RECEIPT,LIMOUSINE,long,resources/sound/trials/audio_stim_comp40.mp3,60fd50f818928248f1a88449,24,Female,Right handed,2021-07-26_21h00.03.260,MA Experiment 2,2021.1.2,Win32,59.99880002,3,20,122,19,1,,,,,
1.2135,response_2,longFoil,POLO,CINNAMON,,,,,,ROBBER,RATTLESNAKE,short,resources/sound/trials/audio_stim_human64.mp3,60fd50f818928248f1a88449,24,Female,Right handed,2021-07-26_21h00.03.260,MA Experiment 2,2021.1.2,Win32,59.99880002,3,21,123,15,1,,,,,
1.6304,response_1,shortFoil,STOCKING,ABDOMEN,,,,,,PAINTER,VEHICLE,short,resources/sound/trials/audio_stim_human47.mp3,60fd50f818928248f1a88449,24,Female,Right handed,2021-07-26_21h00.03.260,MA Experiment 2,2021.1.2,Win32,59.99880002,3,22,124,11,1,,,,,
1.1975,response_2,,UNCLE,FACTORY,,,,,,CORNER,ENGINEER,short,resources/sound/catchTrials/audio_control_human_project14.mp3,60fd50f818928248f1a88449,24,Female,Right handed,2021-07-26_21h00.03.260,MA Experiment 2,2021.1.2,Win32,59.99880002,,,,,,0,16,16,10,1
1.3786,response_2,longValid,GIRDLE,MONUMENT,,,,,,PARTY,SANCTUARY,short,resources/sound/trials/audio_stim_human50.mp3,60fd50f818928248f1a88449,24,Female,Right handed,2021-07-26_21h00.03.260,MA Experiment 2,2021.1.2,Win32,59.99880002,3,23,125,14,1,,,,,
2.4127,response_1,longValid,MISTRESS,CITIZEN,,,,,,PAINTER,VEHICLE,long,resources/sound/trials/audio_stim_human47.mp3,60fd50f818928248f1a88449,24,Female,Right handed,2021-07-26_21h00.03.260,MA Experiment 2,2021.1.2,Win32,59.99880002,3,24,126,28,1,,,,,
1.6467,response_1,shortFoil,TORTURE,ALCOHOL,,,,,,WHISTLE,TREASURER,long,resources/sound/trials/audio_stim_comp12.mp3,60fd50f818928248f1a88449,24,Female,Right handed,2021-07-26_21h00.03.260,MA Experiment 2,2021.1.2,Win32,59.99880002,3,25,127,20,1,,,,,
0.9944,response_1,shortFoil,KETTLE,DIAMOND,,,,,,ATHLETE,IVORY,long,resources/sound/trials/audio_stim_comp57.mp3,60fd50f818928248f1a88449,24,Female,Right handed,2021-07-26_21h00.03.260,MA Experiment 2,2021.1.2,Win32,59.99880002,3,26,128,22,1,,,,,
1.6781,response_1,,TUMBLE,APPLIANCE,,,,,,VIOLET,LUBRICANT,short,resources/sound/catchTrials/audio_control_human_project07.mp3,60fd50f818928248f1a88449,24,Female,Right handed,2021-07-26_21h00.03.260,MA Experiment 2,2021.1.2,Win32,59.99880002,,,,,,0,22,22,12,1
1.1477,response_2,longFoil,RABBI,POTATO,,,,,,WORKER,VISITOR,short,resources/sound/trials/audio_stim_comp17.mp3,60fd50f818928248f1a88449,24,Female,Right handed,2021-07-26_21h00.03.260,MA Experiment 2,2021.1.2,Win32,59.99880002,3,27,129,6,1,,,,,
1.6316,response_2,longValid,VAPOUR,MESSENGER,,,,,,DAYLIGHT,MATERIAL,short,resources/sound/trials/audio_stim_human42.mp3,60fd50f818928248f1a88449,24,Female,Right handed,2021-07-26_21h00.03.260,MA Experiment 2,2021.1.2,Win32,59.99880002,3,28,130,9,1,,,,,
1.5158,response_1,longValid,CRYSTAL,PROPELLER,,,,,,MINER,EMERALD,long,resources/sound/trials/audio_stim_human6.mp3,60fd50f818928248f1a88449,24,Female,Right handed,2021-07-26_21h00.03.260,MA Experiment 2,2021.1.2,Win32,59.99880002,3,29,131,30,1,,,,,
1.3885,response_1,shortValid,MUSCLE,JANITOR,,,,,,MARBLE,CUSTOMER,short,resources/sound/trials/audio_stim_comp65.mp3,60fd50f818928248f1a88449,24,Female,Right handed,2021-07-26_21h00.03.260,MA Experiment 2,2021.1.2,Win32,59.99880002,3,30,132,4,1,,,,,
0.9835,response_2,,SEGMENT,CROCODILE,,,,,,ICY,JITTERBUG,long,resources/sound/catchTrials/audio_control_comp_project08.mp3,60fd50f818928248f1a88449,24,Female,Right handed,2021-07-26_21h00.03.260,MA Experiment 2,2021.1.2,Win32,59.99880002,,,,,,0,26,26,23,1
1.3039,response_2,longFoil,HARBOUR,MEDICINE,,,,,,BRAINSTORM,GREEN NEEDLE,long,resources/sound/trials/audio_stim_original.mp3,60fd50f818928248f1a88449,24,Female,Right handed,2021-07-26_21h00.03.260,MA Experiment 2,2021.1.2,Win32,59.99880002,3,31,133,33,1,,,,,
1.3991,response_2,shortValid,SADDLE,NEIGHBOURHOOD,,,,,,BRAINSTORM,GREEN NEEDLE,short,resources/sound/trials/audio_stim_original.mp3,60fd50f818928248f1a88449,24,Female,Right handed,2021-07-26_21h00.03.260,MA Experiment 2,2021.1.2,Win32,59.99880002,3,32,134,16,1,,,,,
1.5309,response_1,longValid,MEDICINE,FIREWOOD,,,,,,MINER,EMERALD,short,resources/sound/trials/audio_stim_human6.mp3,60fd50f818928248f1a88449,24,Female,Right handed,2021-07-26_21h00.03.260,MA Experiment 2,2021.1.2,Win32,59.99880002,3,33,135,13,1,,,,,
