response.time,response,cueTarget,rand_foil_1,rand_foil_2,prac_trials.thisRepN,prac_trials.thisTrialN,prac_trials.thisN,prac_trials.thisIndex,prac_trials.ran,word_1,word_2,cue,file_path,participant,age,gender,handedness,date,expName,psychopyVersion,OS,frameRate,trials.thisRepN,trials.thisTrialN,trials.thisN,trials.thisIndex,trials.ran,catchTrials.thisRepN,catchTrials.thisTrialN,catchTrials.thisN,catchTrials.thisIndex,catchTrials.ran
2.6654,response_2,shortValid,CHIPMUNK,AMMONIA,0,0,0,5,1,NONSENSE,OASIS,short,resources/sound/prac_trials/practice_cue_human5.mp3,60fd0562ac82c2e3436d357f,21,Female,Left handed,2021-07-26_21h09.18.772,MA Experiment 2,2021.1.2,MacIntel,59.99880002,,,,,,,,,,
1.4111,response_2,longFoil,WINDOW,MEDICINE,0,1,1,6,1,VACANT,SALVATION,long,resources/sound/prac_trials/practice_cue6.mp3,60fd0562ac82c2e3436d357f,21,Female,Left handed,2021-07-26_21h09.18.772,MA Experiment 2,2021.1.2,MacIntel,59.99880002,,,,,,,,,,
2.397,response_2,longFoil,BERRY,NEWSPAPER,0,2,2,0,1,AARDVARK,FALLACY,short,resources/sound/prac_trials/practice_cue0.mp3,60fd0562ac82c2e3436d357f,21,Female,Left handed,2021-07-26_21h09.18.772,MA Experiment 2,2021.1.2,MacIntel,59.99880002,,,,,,,,,,
1.3458,response_2,longValid,SCOOTER,TANGERINE,0,3,3,3,1,EAGER,QUALIFY,short,resources/sound/prac_trials/practice_cue_human3.mp3,60fd0562ac82c2e3436d357f,21,Female,Left handed,2021-07-26_21h09.18.772,MA Experiment 2,2021.1.2,MacIntel,59.99880002,,,,,,,,,,
1.4791,response_1,longValid,MISTRESS,AMBULANCE,0,4,4,1,1,CABLE,REPUBLIC,short,resources/sound/prac_trials/practice_cue_human1.mp3,60fd0562ac82c2e3436d357f,21,Female,Left handed,2021-07-26_21h09.18.772,MA Experiment 2,2021.1.2,MacIntel,59.99880002,,,,,,,,,,
2.9311,response_2,shortValid,UNCLE,SETTLEMENT,0,5,5,10,1,SAFFRON,JAVELIN,long,resources/sound/prac_trials/practice_cue10.mp3,60fd0562ac82c2e3436d357f,21,Female,Left handed,2021-07-26_21h09.18.772,MA Experiment 2,2021.1.2,MacIntel,59.99880002,,,,,,,,,,
,,shortValid,WALRUS,OPENING,0,6,6,8,1,DAGGER,EMPHASIS,long,resources/sound/prac_trials/practice_cue8.mp3,60fd0562ac82c2e3436d357f,21,Female,Left handed,2021-07-26_21h09.18.772,MA Experiment 2,2021.1.2,MacIntel,59.99880002,,,,,,,,,,
1.7449,response_1,longValid,FAIRY,MONUMENT,0,7,7,2,1,RECENT,TOBACCO,short,resources/sound/prac_trials/practice_cue2.mp3,60fd0562ac82c2e3436d357f,21,Female,Left handed,2021-07-26_21h09.18.772,MA Experiment 2,2021.1.2,MacIntel,59.99880002,,,,,,,,,,
3.0615,response_1,shortFoil,DIAL,FACTORY,0,8,8,11,1,KETCHUP,GONDOLA,long,resources/sound/prac_trials/practice_cue_human11.mp3,60fd0562ac82c2e3436d357f,21,Female,Left handed,2021-07-26_21h09.18.772,MA Experiment 2,2021.1.2,MacIntel,59.99880002,,,,,,,,,,
1.53,response_2,shortFoil,EVENING,BUTTERFLY,0,9,9,9,1,GRUMPY,LABYRINTH,long,resources/sound/prac_trials/practice_cue_human9.mp3,60fd0562ac82c2e3436d357f,21,Female,Left handed,2021-07-26_21h09.18.772,MA Experiment 2,2021.1.2,MacIntel,59.99880002,,,,,,,,,,
2.9133,response_2,shortFoil,JURY,POLICEMAN,0,10,10,7,1,BUCKLE,WALLABY,long,resources/sound/prac_trials/practice_cue_human7.mp3,60fd0562ac82c2e3436d357f,21,Female,Left handed,2021-07-26_21h09.18.772,MA Experiment 2,2021.1.2,MacIntel,59.99880002,,,,,,,,,,
1.4792,response_2,shortFoil,PICTURE,GRASSHOPPER,0,11,11,4,1,FIZZY,ELECTRIC,short,resources/sound/prac_trials/practice_cue4.mp3,60fd0562ac82c2e3436d357f,21,Female,Left handed,2021-07-26_21h09.18.772,MA Experiment 2,2021.1.2,MacIntel,59.99880002,,,,,,,,,,
2.0796,response_1,longValid,FERTILE,ASBESTOS,,,,,,SACRED,GALAXY,long,resources/sound/trials/audio_stim_comp1.mp3,60fd0562ac82c2e3436d357f,21,Female,Left handed,2021-07-26_21h09.18.772,MA Experiment 2,2021.1.2,MacIntel,59.99880002,0,0,0,24,1,,,,,
2.5657,response_1,longValid,LEADER,MECHANIC,,,,,,WHISTLE,TREASURER,short,resources/sound/trials/audio_stim_comp12.mp3,60fd0562ac82c2e3436d357f,21,Female,Left handed,2021-07-26_21h09.18.772,MA Experiment 2,2021.1.2,MacIntel,59.99880002,0,1,1,3,1,,,,,
1.4127,response_1,longValid,SADDLE,CAPITAL,,,,,,ATHLETE,IVORY,long,resources/sound/trials/audio_stim_comp57.mp3,60fd0562ac82c2e3436d357f,21,Female,Left handed,2021-07-26_21h09.18.772,MA Experiment 2,2021.1.2,MacIntel,59.99880002,0,2,2,22,1,,,,,
1.2958,response_2,,NEIGHBOUR,TEMPERATURE,,,,,,CORNER,ENGINEER,long,resources/sound/catchTrials/audio_control_comp_project14.mp3,60fd0562ac82c2e3436d357f,21,Female,Left handed,2021-07-26_21h09.18.772,MA Experiment 2,2021.1.2,MacIntel,59.99880002,,,,,,0,30,30,17,1
2.563,response_2,shortValid,DIVING,GYMNASTICS,,,,,,HARDWARE,OVERCOAT,long,resources/sound/trials/audio_stim_human35.mp3,60fd0562ac82c2e3436d357f,21,Female,Left handed,2021-07-26_21h09.18.772,MA Experiment 2,2021.1.2,MacIntel,59.99880002,0,3,3,25,1,,,,,
2.6468,response_2,longFoil,SULPHUR,BEVERAGE,,,,,,PARTY,SANCTUARY,short,resources/sound/trials/audio_stim_human50.mp3,60fd0562ac82c2e3436d357f,21,Female,Left handed,2021-07-26_21h09.18.772,MA Experiment 2,2021.1.2,MacIntel,59.99880002,0,4,4,14,1,,,,,
1.1464,response_1,longValid,CRYSTAL,ATTENDANT,,,,,,RUBBER,PROPERTY,short,resources/sound/trials/audio_stim_human0.mp3,60fd0562ac82c2e3436d357f,21,Female,Left handed,2021-07-26_21h09.18.772,MA Experiment 2,2021.1.2,MacIntel,59.99880002,0,5,5,12,1,,,,,
1.5116,response_1,longValid,BUTTER,GORILLA,,,,,,WHISTLE,TREASURER,long,resources/sound/trials/audio_stim_comp12.mp3,60fd0562ac82c2e3436d357f,21,Female,Left handed,2021-07-26_21h09.18.772,MA Experiment 2,2021.1.2,MacIntel,59.99880002,0,6,6,20,1,,,,,
1.2457,response_1,,NOVEL,GINGERBREAD,,,,,,POISON,REVOLVER,short,resources/sound/catchTrials/audio_control_human_project01.mp3,60fd0562ac82c2e3436d357f,21,Female,Left handed,2021-07-26_21h09.18.772,MA Experiment 2,2021.1.2,MacIntel,59.99880002,,,,,,0,2,2,9,1
2.4679,response_1,shortValid,SODA,CHOCOLATE,,,,,,CONCRETE,ENEMY,short,resources/sound/trials/audio_stim_human67.mp3,60fd0562ac82c2e3436d357f,21,Female,Left handed,2021-07-26_21h09.18.772,MA Experiment 2,2021.1.2,MacIntel,59.99880002,0,7,7,10,1,,,,,
1.3948,response_2,shortFoil,BURNER,MERCURY,,,,,,PARTY,SANCTUARY,long,resources/sound/trials/audio_stim_human50.mp3,60fd0562ac82c2e3436d357f,21,Female,Left handed,2021-07-26_21h09.18.772,MA Experiment 2,2021.1.2,MacIntel,59.99880002,0,8,8,31,1,,,,,
1.296,response_2,shortValid,DWELLER,CABINET,,,,,,PAINTER,VEHICLE,long,resources/sound/trials/audio_stim_human47.mp3,60fd0562ac82c2e3436d357f,21,Female,Left handed,2021-07-26_21h09.18.772,MA Experiment 2,2021.1.2,MacIntel,59.99880002,0,9,9,28,1,,,,,
1.5966,response_2,shortFoil,MOONLIGHT,GOVERNMENT,,,,,,HARDWARE,OVERCOAT,short,resources/sound/trials/audio_stim_human35.mp3,60fd0562ac82c2e3436d357f,21,Female,Left handed,2021-07-26_21h09.18.772,MA Experiment 2,2021.1.2,MacIntel,59.99880002,0,10,10,8,1,,,,,
1.5777,response_2,,INCOME,ALCOHOL,,,,,,SPINACH,APRICOT,short,resources/sound/catchTrials/audio_control_comp_project18.mp3,60fd0562ac82c2e3436d357f,21,Female,Left handed,2021-07-26_21h09.18.772,MA Experiment 2,2021.1.2,MacIntel,59.99880002,,,,,,0,23,23,5,1
1.4787,response_2,shortValid,CAPTAIN,HEROIN,,,,,,SACRED,GALAXY,short,resources/sound/trials/audio_stim_comp1.mp3,60fd0562ac82c2e3436d357f,21,Female,Left handed,2021-07-26_21h09.18.772,MA Experiment 2,2021.1.2,MacIntel,59.99880002,0,11,11,7,1,,,,,
1.2798,response_2,longValid,TRAITOR,PROPELLER,,,,,,WORKER,VISITOR,long,resources/sound/trials/audio_stim_comp17.mp3,60fd0562ac82c2e3436d357f,21,Female,Left handed,2021-07-26_21h09.18.772,MA Experiment 2,2021.1.2,MacIntel,59.99880002,0,12,12,23,1,,,,,
2.1278,response_2,shortFoil,PRINCESS,NEIGHBOURHOOD,,,,,,MINER,EMERALD,short,resources/sound/trials/audio_stim_human6.mp3,60fd0562ac82c2e3436d357f,21,Female,Left handed,2021-07-26_21h09.18.772,MA Experiment 2,2021.1.2,MacIntel,59.99880002,0,13,13,13,1,,,,,
1.3633,response_1,longValid,LIQUID,INSTRUMENT,,,,,,MARBLE,CUSTOMER,long,resources/sound/trials/audio_stim_comp65.mp3,60fd0562ac82c2e3436d357f,21,Female,Left handed,2021-07-26_21h09.18.772,MA Experiment 2,2021.1.2,MacIntel,59.99880002,0,14,14,21,1,,,,,
1.1125,response_2,,GRADUATE,ABDOMEN,,,,,,CORNER,ENGINEER,long,resources/sound/catchTrials/audio_control_human_project14.mp3,60fd0562ac82c2e3436d357f,21,Female,Left handed,2021-07-26_21h09.18.772,MA Experiment 2,2021.1.2,MacIntel,59.99880002,,,,,,0,31,31,26,1
1.5798,response_2,longValid,VESSEL,DISSECTION,,,,,,DRIZZLE,CARDINAL,short,resources/sound/trials/audio_stim_comp69.mp3,60fd0562ac82c2e3436d357f,21,Female,Left handed,2021-07-26_21h09.18.772,MA Experiment 2,2021.1.2,MacIntel,59.99880002,0,15,15,0,1,,,,,
2.3318,response_2,longValid,PIANO,CORRIDOR,,,,,,RECEIPT,LIMOUSINE,short,resources/sound/trials/audio_stim_comp40.mp3,60fd0562ac82c2e3436d357f,21,Female,Left handed,2021-07-26_21h09.18.772,MA Experiment 2,2021.1.2,MacIntel,59.99880002,0,16,16,2,1,,,,,
2.563,response_1,shortFoil,HAMMER,PHYSICIAN,,,,,,MARBLE,CUSTOMER,short,resources/sound/trials/audio_stim_comp65.mp3,60fd0562ac82c2e3436d357f,21,Female,Left handed,2021-07-26_21h09.18.772,MA Experiment 2,2021.1.2,MacIntel,59.99880002,0,17,17,4,1,,,,,
1.7119,response_1,shortFoil,LOBSTER,STRAWBERRY,,,,,,DRIZZLE,CARDINAL,long,resources/sound/trials/audio_stim_comp69.mp3,60fd0562ac82c2e3436d357f,21,Female,Left handed,2021-07-26_21h09.18.772,MA Experiment 2,2021.1.2,MacIntel,59.99880002,0,18,18,17,1,,,,,
1.1942,response_1,,TWEEZER,DESTROYER,,,,,,VIOLET,LUBRICANT,short,resources/sound/catchTrials/audio_control_human_project07.mp3,60fd0562ac82c2e3436d357f,21,Female,Left handed,2021-07-26_21h09.18.772,MA Experiment 2,2021.1.2,MacIntel,59.99880002,,,,,,0,12,12,12,1
1.2952,response_1,longValid,STATION,APPLIANCE,,,,,,MINER,EMERALD,long,resources/sound/trials/audio_stim_human6.mp3,60fd0562ac82c2e3436d357f,21,Female,Left handed,2021-07-26_21h09.18.772,MA Experiment 2,2021.1.2,MacIntel,59.99880002,0,19,19,30,1,,,,,
2.4469,response_2,shortFoil,SHOULDER,ALPHABET,,,,,,RECEIPT,LIMOUSINE,long,resources/sound/trials/audio_stim_comp40.mp3,60fd0562ac82c2e3436d357f,21,Female,Left handed,2021-07-26_21h09.18.772,MA Experiment 2,2021.1.2,MacIntel,59.99880002,0,20,20,19,1,,,,,
1.9307,response_1,longFoil,NATIVE,CAMERA,,,,,,WORKER,VISITOR,short,resources/sound/trials/audio_stim_comp17.mp3,60fd0562ac82c2e3436d357f,21,Female,Left handed,2021-07-26_21h09.18.772,MA Experiment 2,2021.1.2,MacIntel,59.99880002,0,21,21,6,1,,,,,
0.9797,response_2,longFoil,CABIN,CANDLELIGHT,,,,,,RUBBER,PROPERTY,long,resources/sound/trials/audio_stim_human0.mp3,60fd0562ac82c2e3436d357f,21,Female,Left handed,2021-07-26_21h09.18.772,MA Experiment 2,2021.1.2,MacIntel,59.99880002,0,22,22,29,1,,,,,
1.5782,response_2,,NURSERY,ANTIQUE,,,,,,BORDER,ALGEBRA,long,resources/sound/catchTrials/audio_control_comp_project00.mp3,60fd0562ac82c2e3436d357f,21,Female,Left handed,2021-07-26_21h09.18.772,MA Experiment 2,2021.1.2,MacIntel,59.99880002,,,,,,0,19,19,16,1
1.1616,response_1,longFoil,HARBOUR,MICROSCOPE,,,,,,PAINTER,VEHICLE,short,resources/sound/trials/audio_stim_human47.mp3,60fd0562ac82c2e3436d357f,21,Female,Left handed,2021-07-26_21h09.18.772,MA Experiment 2,2021.1.2,MacIntel,59.99880002,0,23,23,11,1,,,,,
1.2135,response_1,longFoil,KETTLE,CARNATION,,,,,,DAYLIGHT,MATERIAL,long,resources/sound/trials/audio_stim_human42.mp3,60fd0562ac82c2e3436d357f,21,Female,Left handed,2021-07-26_21h09.18.772,MA Experiment 2,2021.1.2,MacIntel,59.99880002,0,24,24,26,1,,,,,
1.029,response_1,shortValid,CIGAR,COMMITTEE,,,,,,MINER,EMERALD,short,resources/sound/trials/audio_stim_comp6.mp3,60fd0562ac82c2e3436d357f,21,Female,Left handed,2021-07-26_21h09.18.772,MA Experiment 2,2021.1.2,MacIntel,59.99880002,0,25,25,1,1,,,,,
1.6956,response_2,longValid,BEETLE,MOLECULE,,,,,,BRAINSTORM,GREEN NEEDLE,long,resources/sound/trials/audio_stim_original.mp3,60fd0562ac82c2e3436d357f,21,Female,Left handed,2021-07-26_21h09.18.772,MA Experiment 2,2021.1.2,MacIntel,59.99880002,0,26,26,33,1,,,,,
0.9619,response_1,,STOCKING,REFEREE,,,,,,VIOLET,LUBRICANT,long,resources/sound/catchTrials/audio_control_comp_project07.mp3,60fd0562ac82c2e3436d357f,21,Female,Left handed,2021-07-26_21h09.18.772,MA Experiment 2,2021.1.2,MacIntel,59.99880002,,,,,,0,3,3,19,1
1.1108,response_1,longFoil,HAMSTER,ENAMEL,,,,,,CONCRETE,ENEMY,long,resources/sound/trials/audio_stim_human67.mp3,60fd0562ac82c2e3436d357f,21,Female,Left handed,2021-07-26_21h09.18.772,MA Experiment 2,2021.1.2,MacIntel,59.99880002,0,27,27,27,1,,,,,
1.3785,response_1,shortFoil,MEDICINE,PROJECTOR,,,,,,MINER,EMERALD,long,resources/sound/trials/audio_stim_comp6.mp3,60fd0562ac82c2e3436d357f,21,Female,Left handed,2021-07-26_21h09.18.772,MA Experiment 2,2021.1.2,MacIntel,59.99880002,0,28,28,18,1,,,,,
1.8104,response_2,longFoil,FATHER,INSTRUCTOR,,,,,,ROBBER,RATTLESNAKE,long,resources/sound/trials/audio_stim_human64.mp3,60fd0562ac82c2e3436d357f,21,Female,Left handed,2021-07-26_21h09.18.772,MA Experiment 2,2021.1.2,MacIntel,59.99880002,0,29,29,32,1,,,,,
1.2122,response_2,longValid,VILLAGE,SPECIALIST,,,,,,ROBBER,RATTLESNAKE,short,resources/sound/trials/audio_stim_human64.mp3,60fd0562ac82c2e3436d357f,21,Female,Left handed,2021-07-26_21h09.18.772,MA Experiment 2,2021.1.2,MacIntel,59.99880002,0,30,30,15,1,,,,,
1.4442,response_2,,FEVER,HOSPITAL,,,,,,JOURNAL,ROBBERY,long,resources/sound/catchTrials/audio_control_human_project02.mp3,60fd0562ac82c2e3436d357f,21,Female,Left handed,2021-07-26_21h09.18.772,MA Experiment 2,2021.1.2,MacIntel,59.99880002,,,,,,0,28,28,29,1
0.9276,response_1,longFoil,ACRE,CIGARETTE,,,,,,DAYLIGHT,MATERIAL,short,resources/sound/trials/audio_stim_human42.mp3,60fd0562ac82c2e3436d357f,21,Female,Left handed,2021-07-26_21h09.18.772,MA Experiment 2,2021.1.2,MacIntel,59.99880002,0,31,31,9,1,,,,,
1.2286,response_2,longFoil,SOFA,ENVELOPE,,,,,,BRAINSTORM,GREEN NEEDLE,short,resources/sound/trials/audio_stim_original.mp3,60fd0562ac82c2e3436d357f,21,Female,Left handed,2021-07-26_21h09.18.772,MA Experiment 2,2021.1.2,MacIntel,59.99880002,0,32,32,16,1,,,,,
1.4108,response_1,longFoil,KERNEL,CITIZEN,,,,,,ATHLETE,IVORY,short,resources/sound/trials/audio_stim_comp57.mp3,60fd0562ac82c2e3436d357f,21,Female,Left handed,2021-07-26_21h09.18.772,MA Experiment 2,2021.1.2,MacIntel,59.99880002,0,33,33,5,1,,,,,
1.0613,response_2,shortFoil,NAPKIN,LECTURER,,,,,,MINER,EMERALD,long,resources/sound/trials/audio_stim_human6.mp3,60fd0562ac82c2e3436d357f,21,Female,Left handed,2021-07-26_21h09.18.772,MA Experiment 2,2021.1.2,MacIntel,59.99880002,1,0,34,30,1,,,,,
1.376,response_2,shortFoil,MURDER,RETAILER,,,,,,SACRED,GALAXY,short,resources/sound/trials/audio_stim_comp1.mp3,60fd0562ac82c2e3436d357f,21,Female,Left handed,2021-07-26_21h09.18.772,MA Experiment 2,2021.1.2,MacIntel,59.99880002,1,1,35,7,1,,,,,
1.146,response_1,longValid,HURDLE,MINISTER,,,,,,DAYLIGHT,MATERIAL,short,resources/sound/trials/audio_stim_human42.mp3,60fd0562ac82c2e3436d357f,21,Female,Left handed,2021-07-26_21h09.18.772,MA Experiment 2,2021.1.2,MacIntel,59.99880002,1,2,36,9,1,,,,,
1.5625,response_2,,TUMBLE,CINNAMON,,,,,,ICY,JITTERBUG,long,resources/sound/catchTrials/audio_control_comp_project08.mp3,60fd0562ac82c2e3436d357f,21,Female,Left handed,2021-07-26_21h09.18.772,MA Experiment 2,2021.1.2,MacIntel,59.99880002,,,,,,0,24,24,23,1
1.095,response_2,longFoil,CEREAL,JANITOR,,,,,,MINER,EMERALD,short,resources/sound/trials/audio_stim_human6.mp3,60fd0562ac82c2e3436d357f,21,Female,Left handed,2021-07-26_21h09.18.772,MA Experiment 2,2021.1.2,MacIntel,59.99880002,1,3,37,13,1,,,,,
1.6622,response_2,longFoil,WIRE,PROFESSOR,,,,,,RUBBER,PROPERTY,short,resources/sound/trials/audio_stim_human0.mp3,60fd0562ac82c2e3436d357f,21,Female,Left handed,2021-07-26_21h09.18.772,MA Experiment 2,2021.1.2,MacIntel,59.99880002,1,4,38,12,1,,,,,
1.761,response_1,shortFoil,MUSCLE,HEADQUARTERS,,,,,,PAINTER,VEHICLE,long,resources/sound/trials/audio_stim_human47.mp3,60fd0562ac82c2e3436d357f,21,Female,Left handed,2021-07-26_21h09.18.772,MA Experiment 2,2021.1.2,MacIntel,59.99880002,1,5,39,28,1,,,,,
1.2638,response_1,shortFoil,PERSON,GALLERY,,,,,,SACRED,GALAXY,long,resources/sound/trials/audio_stim_comp1.mp3,60fd0562ac82c2e3436d357f,21,Female,Left handed,2021-07-26_21h09.18.772,MA Experiment 2,2021.1.2,MacIntel,59.99880002,1,6,40,24,1,,,,,
1.1291,response_2,,KENNEL,MINERAL,,,,,,IRIS,VIOLIN,long,resources/sound/catchTrials/audio_control_comp_project12.mp3,60fd0562ac82c2e3436d357f,21,Female,Left handed,2021-07-26_21h09.18.772,MA Experiment 2,2021.1.2,MacIntel,59.99880002,,,,,,0,26,26,20,1
1.3945,response_2,longValid,DANCER,CATHEDRAL,,,,,,HARDWARE,OVERCOAT,short,resources/sound/trials/audio_stim_human35.mp3,60fd0562ac82c2e3436d357f,21,Female,Left handed,2021-07-26_21h09.18.772,MA Experiment 2,2021.1.2,MacIntel,59.99880002,1,7,41,8,1,,,,,
1.3302,response_1,shortFoil,WAFER,FIREWOOD,,,,,,ATHLETE,IVORY,long,resources/sound/trials/audio_stim_comp57.mp3,60fd0562ac82c2e3436d357f,21,Female,Left handed,2021-07-26_21h09.18.772,MA Experiment 2,2021.1.2,MacIntel,59.99880002,1,8,42,22,1,,,,,
1.1952,response_2,shortFoil,SHEEPSKIN,HURRICANE,,,,,,MINER,EMERALD,short,resources/sound/trials/audio_stim_comp6.mp3,60fd0562ac82c2e3436d357f,21,Female,Left handed,2021-07-26_21h09.18.772,MA Experiment 2,2021.1.2,MacIntel,59.99880002,1,9,43,1,1,,,,,
1.4793,response_1,longFoil,CURFEW,DIAMOND,,,,,,WHISTLE,TREASURER,long,resources/sound/trials/audio_stim_comp12.mp3,60fd0562ac82c2e3436d357f,21,Female,Left handed,2021-07-26_21h09.18.772,MA Experiment 2,2021.1.2,MacIntel,59.99880002,1,10,44,20,1,,,,,
1.3464,response_2,,GIRDLE,EMULSION,,,,,,IRIS,VIOLIN,short,resources/sound/catchTrials/audio_control_comp_project12.mp3,60fd0562ac82c2e3436d357f,21,Female,Left handed,2021-07-26_21h09.18.772,MA Experiment 2,2021.1.2,MacIntel,59.99880002,,,,,,0,17,17,4,1
1.5111,response_1,longValid,LIGHTNING,ORNAMENT,,,,,,MARBLE,CUSTOMER,short,resources/sound/trials/audio_stim_comp65.mp3,60fd0562ac82c2e3436d357f,21,Female,Left handed,2021-07-26_21h09.18.772,MA Experiment 2,2021.1.2,MacIntel,59.99880002,1,11,45,4,1,,,,,
1.1118,response_2,shortFoil,NECKLACE,POLIO,,,,,,BRAINSTORM,GREEN NEEDLE,short,resources/sound/trials/audio_stim_original.mp3,60fd0562ac82c2e3436d357f,21,Female,Left handed,2021-07-26_21h09.18.772,MA Experiment 2,2021.1.2,MacIntel,59.99880002,1,12,46,16,1,,,,,
1.429,response_1,longFoil,CANTEEN,AVENUE,,,,,,DRIZZLE,CARDINAL,short,resources/sound/trials/audio_stim_comp69.mp3,60fd0562ac82c2e3436d357f,21,Female,Left handed,2021-07-26_21h09.18.772,MA Experiment 2,2021.1.2,MacIntel,59.99880002,1,13,47,0,1,,,,,
1.364,response_2,longValid,VAPOUR,POTATO,,,,,,HARDWARE,OVERCOAT,long,resources/sound/trials/audio_stim_human35.mp3,60fd0562ac82c2e3436d357f,21,Female,Left handed,2021-07-26_21h09.18.772,MA Experiment 2,2021.1.2,MacIntel,59.99880002,1,14,48,25,1,,,,,
1.2445,response_2,,PIPING,INTERVIEW,,,,,,IRIS,VIOLIN,short,resources/sound/catchTrials/audio_control_human_project12.mp3,60fd0562ac82c2e3436d357f,21,Female,Left handed,2021-07-26_21h09.18.772,MA Experiment 2,2021.1.2,MacIntel,59.99880002,,,,,,0,27,27,8,1
1.4615,response_1,shortFoil,MEASLES,CROCODILE,,,,,,CONCRETE,ENEMY,short,resources/sound/trials/audio_stim_human67.mp3,60fd0562ac82c2e3436d357f,21,Female,Left handed,2021-07-26_21h09.18.772,MA Experiment 2,2021.1.2,MacIntel,59.99880002,1,15,49,10,1,,,,,
2.2787,response_2,longFoil,PODIUM,LEMONADE,,,,,,RECEIPT,LIMOUSINE,long,resources/sound/trials/audio_stim_comp40.mp3,60fd0562ac82c2e3436d357f,21,Female,Left handed,2021-07-26_21h09.18.772,MA Experiment 2,2021.1.2,MacIntel,59.99880002,1,16,50,19,1,,,,,
2.0444,response_1,longFoil,INVOICE,VINEGAR,,,,,,WHISTLE,TREASURER,short,resources/sound/trials/audio_stim_comp12.mp3,60fd0562ac82c2e3436d357f,21,Female,Left handed,2021-07-26_21h09.18.772,MA Experiment 2,2021.1.2,MacIntel,59.99880002,1,17,51,3,1,,,,,
1.08,response_1,shortValid,SEGMENT,CONVENTION,,,,,,BRAINSTORM,GREEN NEEDLE,long,resources/sound/trials/audio_stim_original.mp3,60fd0562ac82c2e3436d357f,21,Female,Left handed,2021-07-26_21h09.18.772,MA Experiment 2,2021.1.2,MacIntel,59.99880002,1,18,52,33,1,,,,,
1.3116,response_2,,MORNING,INSTITUTE,,,,,,HOBBY,COLONY,long,resources/sound/catchTrials/audio_control_human_project04.mp3,60fd0562ac82c2e3436d357f,21,Female,Left handed,2021-07-26_21h09.18.772,MA Experiment 2,2021.1.2,MacIntel,59.99880002,,,,,,0,18,18,27,1
0.945,response_2,shortFoil,WRITING,INDUSTRY,,,,,,WORKER,VISITOR,long,resources/sound/trials/audio_stim_comp17.mp3,60fd0562ac82c2e3436d357f,21,Female,Left handed,2021-07-26_21h09.18.772,MA Experiment 2,2021.1.2,MacIntel,59.99880002,1,19,53,23,1,,,,,
1.5309,response_2,shortValid,FOREARM,INFECTION,,,,,,PARTY,SANCTUARY,long,resources/sound/trials/audio_stim_human50.mp3,60fd0562ac82c2e3436d357f,21,Female,Left handed,2021-07-26_21h09.18.772,MA Experiment 2,2021.1.2,MacIntel,59.99880002,1,20,54,31,1,,,,,
0.8961,response_1,shortValid,PATIENT,CLARINET,,,,,,DRIZZLE,CARDINAL,long,resources/sound/trials/audio_stim_comp69.mp3,60fd0562ac82c2e3436d357f,21,Female,Left handed,2021-07-26_21h09.18.772,MA Experiment 2,2021.1.2,MacIntel,59.99880002,1,21,55,17,1,,,,,
1.2293,response_2,longValid,RABBI,FAMILY,,,,,,RUBBER,PROPERTY,long,resources/sound/trials/audio_stim_human0.mp3,60fd0562ac82c2e3436d357f,21,Female,Left handed,2021-07-26_21h09.18.772,MA Experiment 2,2021.1.2,MacIntel,59.99880002,1,22,56,29,1,,,,,
1.1644,response_2,,DECOY,ACROBAT,,,,,,SPINACH,APRICOT,long,resources/sound/catchTrials/audio_control_comp_project18.mp3,60fd0562ac82c2e3436d357f,21,Female,Left handed,2021-07-26_21h09.18.772,MA Experiment 2,2021.1.2,MacIntel,59.99880002,,,,,,0,25,25,21,1
0.9107,response_1,longValid,SINGER,ADMIRAL,,,,,,CONCRETE,ENEMY,long,resources/sound/trials/audio_stim_human67.mp3,60fd0562ac82c2e3436d357f,21,Female,Left handed,2021-07-26_21h09.18.772,MA Experiment 2,2021.1.2,MacIntel,59.99880002,1,23,57,27,1,,,,,
0.8959,response_2,longValid,POLO,ICICLE,,,,,,PARTY,SANCTUARY,short,resources/sound/trials/audio_stim_human50.mp3,60fd0562ac82c2e3436d357f,21,Female,Left handed,2021-07-26_21h09.18.772,MA Experiment 2,2021.1.2,MacIntel,59.99880002,1,24,58,14,1,,,,,
1.0779,response_1,longValid,RUSTY,INJURY,,,,,,ATHLETE,IVORY,short,resources/sound/trials/audio_stim_comp57.mp3,60fd0562ac82c2e3436d357f,21,Female,Left handed,2021-07-26_21h09.18.772,MA Experiment 2,2021.1.2,MacIntel,59.99880002,1,25,59,5,1,,,,,
1.0959,response_1,shortValid,OLIVE,FURNITURE,,,,,,DAYLIGHT,MATERIAL,long,resources/sound/trials/audio_stim_human42.mp3,60fd0562ac82c2e3436d357f,21,Female,Left handed,2021-07-26_21h09.18.772,MA Experiment 2,2021.1.2,MacIntel,59.99880002,1,26,60,26,1,,,,,
1.2117,response_2,,DOORWAY,HONEYMOON,,,,,,NAVY,RECTANGLE,short,resources/sound/catchTrials/audio_control_human_project06.mp3,60fd0562ac82c2e3436d357f,21,Female,Left handed,2021-07-26_21h09.18.772,MA Experiment 2,2021.1.2,MacIntel,59.99880002,,,,,,0,0,0,14,1
1.6119,response_1,longValid,BISHOP,PHOTOGRAPH,,,,,,MINER,EMERALD,long,resources/sound/trials/audio_stim_comp6.mp3,60fd0562ac82c2e3436d357f,21,Female,Left handed,2021-07-26_21h09.18.772,MA Experiment 2,2021.1.2,MacIntel,59.99880002,1,27,61,18,1,,,,,
1.7773,response_2,longFoil,TEMPLE,ATHLETICS,,,,,,RECEIPT,LIMOUSINE,short,resources/sound/trials/audio_stim_comp40.mp3,60fd0562ac82c2e3436d357f,21,Female,Left handed,2021-07-26_21h09.18.772,MA Experiment 2,2021.1.2,MacIntel,59.99880002,1,28,62,2,1,,,,,
1.2457,response_1,shortFoil,MURAL,FISHERMAN,,,,,,PAINTER,VEHICLE,short,resources/sound/trials/audio_stim_human47.mp3,60fd0562ac82c2e3436d357f,21,Female,Left handed,2021-07-26_21h09.18.772,MA Experiment 2,2021.1.2,MacIntel,59.99880002,1,29,63,11,1,,,,,
1.2456,response_1,shortValid,VALLEY,UMBRELLA,,,,,,MARBLE,CUSTOMER,long,resources/sound/trials/audio_stim_comp65.mp3,60fd0562ac82c2e3436d357f,21,Female,Left handed,2021-07-26_21h09.18.772,MA Experiment 2,2021.1.2,MacIntel,59.99880002,1,30,64,21,1,,,,,
1.0452,response_2,,TORTURE,HANDKERCHIEF,,,,,,NAVY,RECTANGLE,long,resources/sound/catchTrials/audio_control_human_project06.mp3,60fd0562ac82c2e3436d357f,21,Female,Left handed,2021-07-26_21h09.18.772,MA Experiment 2,2021.1.2,MacIntel,59.99880002,,,,,,0,9,9,30,1
1.2288,response_2,longValid,ANCHOR,SAXOPHONE,,,,,,ROBBER,RATTLESNAKE,long,resources/sound/trials/audio_stim_human64.mp3,60fd0562ac82c2e3436d357f,21,Female,Left handed,2021-07-26_21h09.18.772,MA Experiment 2,2021.1.2,MacIntel,59.99880002,1,31,65,32,1,,,,,
2.1792,response_2,shortFoil,EARTHWORM,MOSQUITO,,,,,,WORKER,VISITOR,short,resources/sound/trials/audio_stim_comp17.mp3,60fd0562ac82c2e3436d357f,21,Female,Left handed,2021-07-26_21h09.18.772,MA Experiment 2,2021.1.2,MacIntel,59.99880002,1,32,66,6,1,,,,,
1.1453,response_2,shortValid,OFFICE,OXYGEN,,,,,,ROBBER,RATTLESNAKE,short,resources/sound/trials/audio_stim_human64.mp3,60fd0562ac82c2e3436d357f,21,Female,Left handed,2021-07-26_21h09.18.772,MA Experiment 2,2021.1.2,MacIntel,59.99880002,1,33,67,15,1,,,,,
1.6775,response_1,shortValid,DUEL,MESSENGER,,,,,,MINER,EMERALD,long,resources/sound/trials/audio_stim_comp6.mp3,60fd0562ac82c2e3436d357f,21,Female,Left handed,2021-07-26_21h09.18.772,MA Experiment 2,2021.1.2,MacIntel,59.99880002,2,0,68,18,1,,,,,
1.1787,response_2,shortFoil,WIRE,PROPELLER,,,,,,ROBBER,RATTLESNAKE,long,resources/sound/trials/audio_stim_human64.mp3,60fd0562ac82c2e3436d357f,21,Female,Left handed,2021-07-26_21h09.18.772,MA Experiment 2,2021.1.2,MacIntel,59.99880002,2,1,69,32,1,,,,,
1.031,response_1,shortValid,SEGMENT,COMMITTEE,,,,,,ATHLETE,IVORY,long,resources/sound/trials/audio_stim_comp57.mp3,60fd0562ac82c2e3436d357f,21,Female,Left handed,2021-07-26_21h09.18.772,MA Experiment 2,2021.1.2,MacIntel,59.99880002,2,2,70,22,1,,,,,
1.3463,response_2,,WINDOW,CAMERA,,,,,,IRIS,VIOLIN,long,resources/sound/catchTrials/audio_control_human_project12.mp3,60fd0562ac82c2e3436d357f,21,Female,Left handed,2021-07-26_21h09.18.772,MA Experiment 2,2021.1.2,MacIntel,59.99880002,,,,,,0,20,20,24,1
1.8119,response_2,longValid,GRADUATE,BUTTERFLY,,,,,,RECEIPT,LIMOUSINE,long,resources/sound/trials/audio_stim_comp40.mp3,60fd0562ac82c2e3436d357f,21,Female,Left handed,2021-07-26_21h09.18.772,MA Experiment 2,2021.1.2,MacIntel,59.99880002,2,3,71,19,1,,,,,
1.8292,response_2,longFoil,VESSEL,SPECIALIST,,,,,,BRAINSTORM,GREEN NEEDLE,long,resources/sound/trials/audio_stim_original.mp3,60fd0562ac82c2e3436d357f,21,Female,Left handed,2021-07-26_21h09.18.772,MA Experiment 2,2021.1.2,MacIntel,59.99880002,2,4,72,33,1,,,,,
1.0949,response_1,shortFoil,INCOME,INJURY,,,,,,MARBLE,CUSTOMER,long,resources/sound/trials/audio_stim_comp65.mp3,60fd0562ac82c2e3436d357f,21,Female,Left handed,2021-07-26_21h09.18.772,MA Experiment 2,2021.1.2,MacIntel,59.99880002,2,5,73,21,1,,,,,
1.5114,response_1,shortFoil,SCOOTER,HEADQUARTERS,,,,,,DRIZZLE,CARDINAL,short,resources/sound/trials/audio_stim_comp69.mp3,60fd0562ac82c2e3436d357f,21,Female,Left handed,2021-07-26_21h09.18.772,MA Experiment 2,2021.1.2,MacIntel,59.99880002,2,6,74,0,1,,,,,
1.5282,response_2,,LIQUID,REFEREE,,,,,,NAVY,RECTANGLE,short,resources/sound/catchTrials/audio_control_comp_project06.mp3,60fd0562ac82c2e3436d357f,21,Female,Left handed,2021-07-26_21h09.18.772,MA Experiment 2,2021.1.2,MacIntel,59.99880002,,,,,,0,22,22,6,1
1.4125,response_1,shortFoil,BERRY,PHYSICIAN,,,,,,ATHLETE,IVORY,short,resources/sound/trials/audio_stim_comp57.mp3,60fd0562ac82c2e3436d357f,21,Female,Left handed,2021-07-26_21h09.18.772,MA Experiment 2,2021.1.2,MacIntel,59.99880002,2,7,75,5,1,,,,,
0.6792,response_1,shortValid,STATION,HONEYMOON,,,,,,CONCRETE,ENEMY,long,resources/sound/trials/audio_stim_human67.mp3,60fd0562ac82c2e3436d357f,21,Female,Left handed,2021-07-26_21h09.18.772,MA Experiment 2,2021.1.2,MacIntel,59.99880002,2,8,76,27,1,,,,,
0.6955,response_2,longValid,SHEEPSKIN,EMULSION,,,,,,SACRED,GALAXY,short,resources/sound/trials/audio_stim_comp1.mp3,60fd0562ac82c2e3436d357f,21,Female,Left handed,2021-07-26_21h09.18.772,MA Experiment 2,2021.1.2,MacIntel,59.99880002,2,9,77,7,1,,,,,
1.5284,response_2,longValid,VILLAGE,CABINET,,,,,,WORKER,VISITOR,short,resources/sound/trials/audio_stim_comp17.mp3,60fd0562ac82c2e3436d357f,21,Female,Left handed,2021-07-26_21h09.18.772,MA Experiment 2,2021.1.2,MacIntel,59.99880002,2,10,78,6,1,,,,,
1.4289,response_2,,MEDICINE,CLARINET,,,,,,CORNER,ENGINEER,short,resources/sound/catchTrials/audio_control_comp_project14.mp3,60fd0562ac82c2e3436d357f,21,Female,Left handed,2021-07-26_21h09.18.772,MA Experiment 2,2021.1.2,MacIntel,59.99880002,,,,,,0,8,8,1,1
2.2635,response_1,shortFoil,SULPHUR,MEDICINE,,,,,,WHISTLE,TREASURER,long,resources/sound/trials/audio_stim_comp12.mp3,60fd0562ac82c2e3436d357f,21,Female,Left handed,2021-07-26_21h09.18.772,MA Experiment 2,2021.1.2,MacIntel,59.99880002,2,11,79,20,1,,,,,
1.6945,response_2,shortFoil,DOORWAY,BEVERAGE,,,,,,RECEIPT,LIMOUSINE,short,resources/sound/trials/audio_stim_comp40.mp3,60fd0562ac82c2e3436d357f,21,Female,Left handed,2021-07-26_21h09.18.772,MA Experiment 2,2021.1.2,MacIntel,59.99880002,2,12,80,2,1,,,,,
1.3965,response_1,longFoil,OLIVE,ANTIQUE,,,,,,CONCRETE,ENEMY,short,resources/sound/trials/audio_stim_human67.mp3,60fd0562ac82c2e3436d357f,21,Female,Left handed,2021-07-26_21h09.18.772,MA Experiment 2,2021.1.2,MacIntel,59.99880002,2,13,81,10,1,,,,,
1.5135,response_1,longValid,PIPING,INFECTION,,,,,,PAINTER,VEHICLE,short,resources/sound/trials/audio_stim_human47.mp3,60fd0562ac82c2e3436d357f,21,Female,Left handed,2021-07-26_21h09.18.772,MA Experiment 2,2021.1.2,MacIntel,59.99880002,2,14,82,11,1,,,,,
1.5442,response_1,,TRAITOR,DESTROYER,,,,,,VIOLET,LUBRICANT,short,resources/sound/catchTrials/audio_control_comp_project07.mp3,60fd0562ac82c2e3436d357f,21,Female,Left handed,2021-07-26_21h09.18.772,MA Experiment 2,2021.1.2,MacIntel,59.99880002,,,,,,0,4,4,3,1
1.3466,response_2,shortFoil,TUMBLE,MECHANIC,,,,,,RUBBER,PROPERTY,long,resources/sound/trials/audio_stim_human0.mp3,60fd0562ac82c2e3436d357f,21,Female,Left handed,2021-07-26_21h09.18.772,MA Experiment 2,2021.1.2,MacIntel,59.99880002,2,15,83,29,1,,,,,
1.9968,response_1,longFoil,RABBI,PHOTOGRAPH,,,,,,PAINTER,VEHICLE,long,resources/sound/trials/audio_stim_human47.mp3,60fd0562ac82c2e3436d357f,21,Female,Left handed,2021-07-26_21h09.18.772,MA Experiment 2,2021.1.2,MacIntel,59.99880002,2,16,84,28,1,,,,,
1.2798,response_1,longFoil,NEIGHBOUR,MOLECULE,,,,,,HARDWARE,OVERCOAT,short,resources/sound/trials/audio_stim_human35.mp3,60fd0562ac82c2e3436d357f,21,Female,Left handed,2021-07-26_21h09.18.772,MA Experiment 2,2021.1.2,MacIntel,59.99880002,2,17,85,8,1,,,,,
1.4138,response_2,shortValid,SODA,AMBULANCE,,,,,,RUBBER,PROPERTY,short,resources/sound/trials/audio_stim_human0.mp3,60fd0562ac82c2e3436d357f,21,Female,Left handed,2021-07-26_21h09.18.772,MA Experiment 2,2021.1.2,MacIntel,59.99880002,2,18,86,12,1,,,,,
1.4281,response_1,,NAPKIN,GORILLA,,,,,,JUGGLER,DANDELION,long,resources/sound/catchTrials/audio_control_human_project09.mp3,60fd0562ac82c2e3436d357f,21,Female,Left handed,2021-07-26_21h09.18.772,MA Experiment 2,2021.1.2,MacIntel,59.99880002,,,,,,0,14,14,31,1
2.929,response_2,longValid,PERSON,HURRICANE,,,,,,BRAINSTORM,GREEN NEEDLE,short,resources/sound/trials/audio_stim_original.mp3,60fd0562ac82c2e3436d357f,21,Female,Left handed,2021-07-26_21h09.18.772,MA Experiment 2,2021.1.2,MacIntel,59.99880002,2,19,87,16,1,,,,,
1.5443,response_2,shortFoil,DIVING,MINISTER,,,,,,DAYLIGHT,MATERIAL,long,resources/sound/trials/audio_stim_human42.mp3,60fd0562ac82c2e3436d357f,21,Female,Left handed,2021-07-26_21h09.18.772,MA Experiment 2,2021.1.2,MacIntel,59.99880002,2,20,88,26,1,,,,,
1.7439,response_1,longFoil,HURDLE,FAMILY,,,,,,DRIZZLE,CARDINAL,long,resources/sound/trials/audio_stim_comp69.mp3,60fd0562ac82c2e3436d357f,21,Female,Left handed,2021-07-26_21h09.18.772,MA Experiment 2,2021.1.2,MacIntel,59.99880002,2,21,89,17,1,,,,,
2.1794,response_1,longFoil,DUEL,MERCURY,,,,,,MINER,EMERALD,short,resources/sound/trials/audio_stim_comp6.mp3,60fd0562ac82c2e3436d357f,21,Female,Left handed,2021-07-26_21h09.18.772,MA Experiment 2,2021.1.2,MacIntel,59.99880002,2,22,90,1,1,,,,,
1.1285,response_2,,OFFICE,LEMONADE,,,,,,HOBBY,COLONY,long,resources/sound/catchTrials/audio_control_comp_project04.mp3,60fd0562ac82c2e3436d357f,21,Female,Left handed,2021-07-26_21h09.18.772,MA Experiment 2,2021.1.2,MacIntel,59.99880002,,,,,,0,6,6,18,1
1.9131,response_2,shortValid,TWEEZER,CORRIDOR,,,,,,MINER,EMERALD,long,resources/sound/trials/audio_stim_human6.mp3,60fd0562ac82c2e3436d357f,21,Female,Left handed,2021-07-26_21h09.18.772,MA Experiment 2,2021.1.2,MacIntel,59.99880002,2,23,91,30,1,,,,,
1.2275,response_2,longFoil,SINGER,ALCOHOL,,,,,,ROBBER,RATTLESNAKE,short,resources/sound/trials/audio_stim_human64.mp3,60fd0562ac82c2e3436d357f,21,Female,Left handed,2021-07-26_21h09.18.772,MA Experiment 2,2021.1.2,MacIntel,59.99880002,2,24,92,15,1,,,,,
1.1293,response_1,shortValid,FAIRY,GOVERNMENT,,,,,,MARBLE,CUSTOMER,short,resources/sound/trials/audio_stim_comp65.mp3,60fd0562ac82c2e3436d357f,21,Female,Left handed,2021-07-26_21h09.18.772,MA Experiment 2,2021.1.2,MacIntel,59.99880002,2,25,93,4,1,,,,,
1.4793,response_2,longFoil,PATIENT,RETAILER,,,,,,PARTY,SANCTUARY,long,resources/sound/trials/audio_stim_human50.mp3,60fd0562ac82c2e3436d357f,21,Female,Left handed,2021-07-26_21h09.18.772,MA Experiment 2,2021.1.2,MacIntel,59.99880002,2,26,94,31,1,,,,,
1.4953,response_2,,HARBOUR,CANDLELIGHT,,,,,,NAVY,RECTANGLE,long,resources/sound/catchTrials/audio_control_comp_project06.mp3,60fd0562ac82c2e3436d357f,21,Female,Left handed,2021-07-26_21h09.18.772,MA Experiment 2,2021.1.2,MacIntel,59.99880002,,,,,,0,16,16,22,1
1.0456,response_2,longFoil,PICTURE,APPLIANCE,,,,,,HARDWARE,OVERCOAT,long,resources/sound/trials/audio_stim_human35.mp3,60fd0562ac82c2e3436d357f,21,Female,Left handed,2021-07-26_21h09.18.772,MA Experiment 2,2021.1.2,MacIntel,59.99880002,2,27,95,25,1,,,,,
1.6441,response_1,longValid,CURFEW,DIAMOND,,,,,,MINER,EMERALD,short,resources/sound/trials/audio_stim_human6.mp3,60fd0562ac82c2e3436d357f,21,Female,Left handed,2021-07-26_21h09.18.772,MA Experiment 2,2021.1.2,MacIntel,59.99880002,2,28,96,13,1,,,,,
1.7796,response_2,shortValid,POLO,VINEGAR,,,,,,WORKER,VISITOR,long,resources/sound/trials/audio_stim_comp17.mp3,60fd0562ac82c2e3436d357f,21,Female,Left handed,2021-07-26_21h09.18.772,MA Experiment 2,2021.1.2,MacIntel,59.99880002,2,29,97,23,1,,,,,
1.1298,response_2,shortFoil,PIANO,CAPITAL,,,,,,PARTY,SANCTUARY,short,resources/sound/trials/audio_stim_human50.mp3,60fd0562ac82c2e3436d357f,21,Female,Left handed,2021-07-26_21h09.18.772,MA Experiment 2,2021.1.2,MacIntel,59.99880002,2,30,98,14,1,,,,,
1.2444,response_2,,PODIUM,AMMONIA,,,,,,ICY,JITTERBUG,short,resources/sound/catchTrials/audio_control_comp_project08.mp3,60fd0562ac82c2e3436d357f,21,Female,Left handed,2021-07-26_21h09.18.772,MA Experiment 2,2021.1.2,MacIntel,59.99880002,,,,,,0,21,21,7,1
1.4282,response_2,shortFoil,CANTEEN,OPENING,,,,,,DAYLIGHT,MATERIAL,short,resources/sound/trials/audio_stim_human42.mp3,60fd0562ac82c2e3436d357f,21,Female,Left handed,2021-07-26_21h09.18.772,MA Experiment 2,2021.1.2,MacIntel,59.99880002,2,31,99,9,1,,,,,
1.28,response_2,shortValid,LIGHTNING,MESSENGER,,,,,,SACRED,GALAXY,long,resources/sound/trials/audio_stim_comp1.mp3,60fd0562ac82c2e3436d357f,21,Female,Left handed,2021-07-26_21h09.18.772,MA Experiment 2,2021.1.2,MacIntel,59.99880002,2,32,100,24,1,,,,,
1.7125,response_1,shortValid,MOONLIGHT,ORNAMENT,,,,,,WHISTLE,TREASURER,short,resources/sound/trials/audio_stim_comp12.mp3,60fd0562ac82c2e3436d357f,21,Female,Left handed,2021-07-26_21h09.18.772,MA Experiment 2,2021.1.2,MacIntel,59.99880002,2,33,101,3,1,,,,,
1.3123,response_2,longValid,BURNER,HANDKERCHIEF,,,,,,CONCRETE,ENEMY,short,resources/sound/trials/audio_stim_human67.mp3,60fd0562ac82c2e3436d357f,21,Female,Left handed,2021-07-26_21h09.18.772,MA Experiment 2,2021.1.2,MacIntel,59.99880002,3,0,102,10,1,,,,,
1.9599,response_1,shortFoil,FATHER,FIREWOOD,,,,,,WHISTLE,TREASURER,short,resources/sound/trials/audio_stim_comp12.mp3,60fd0562ac82c2e3436d357f,21,Female,Left handed,2021-07-26_21h09.18.772,MA Experiment 2,2021.1.2,MacIntel,59.99880002,3,1,103,3,1,,,,,
1.1127,response_2,shortValid,MUSCLE,CATHEDRAL,,,,,,MINER,EMERALD,short,resources/sound/trials/audio_stim_human6.mp3,60fd0562ac82c2e3436d357f,21,Female,Left handed,2021-07-26_21h09.18.772,MA Experiment 2,2021.1.2,MacIntel,59.99880002,3,2,104,13,1,,,,,
1.3462,response_2,,CEREAL,TANGERINE,,,,,,CORNER,ENGINEER,short,resources/sound/catchTrials/audio_control_human_project14.mp3,60fd0562ac82c2e3436d357f,21,Female,Left handed,2021-07-26_21h09.18.772,MA Experiment 2,2021.1.2,MacIntel,59.99880002,,,,,,0,13,13,10,1
1.1442,response_1,longFoil,WAFER,SETTLEMENT,,,,,,MARBLE,CUSTOMER,long,resources/sound/trials/audio_stim_comp65.mp3,60fd0562ac82c2e3436d357f,21,Female,Left handed,2021-07-26_21h09.18.772,MA Experiment 2,2021.1.2,MacIntel,59.99880002,3,3,105,21,1,,,,,
1.9124,response_1,shortValid,TORTURE,CARNATION,,,,,,RECEIPT,LIMOUSINE,short,resources/sound/trials/audio_stim_comp40.mp3,60fd0562ac82c2e3436d357f,21,Female,Left handed,2021-07-26_21h09.18.772,MA Experiment 2,2021.1.2,MacIntel,59.99880002,3,4,106,2,1,,,,,
0.7469,response_1,longValid,KENNEL,ABDOMEN,,,,,,DAYLIGHT,MATERIAL,long,resources/sound/trials/audio_stim_human42.mp3,60fd0562ac82c2e3436d357f,21,Female,Left handed,2021-07-26_21h09.18.772,MA Experiment 2,2021.1.2,MacIntel,59.99880002,3,5,107,26,1,,,,,
1.1292,response_2,shortValid,LEADER,POTATO,,,,,,HARDWARE,OVERCOAT,short,resources/sound/trials/audio_stim_human35.mp3,60fd0562ac82c2e3436d357f,21,Female,Left handed,2021-07-26_21h09.18.772,MA Experiment 2,2021.1.2,MacIntel,59.99880002,3,6,108,8,1,,,,,
1.0139,response_2,,DANCER,POLICEMAN,,,,,,HOBBY,COLONY,short,resources/sound/catchTrials/audio_control_human_project04.mp3,60fd0562ac82c2e3436d357f,21,Female,Left handed,2021-07-26_21h09.18.772,MA Experiment 2,2021.1.2,MacIntel,59.99880002,,,,,,0,15,15,11,1
1.6951,response_2,shortValid,BUTTER,MOSQUITO,,,,,,RUBBER,PROPERTY,long,resources/sound/trials/audio_stim_human0.mp3,60fd0562ac82c2e3436d357f,21,Female,Left handed,2021-07-26_21h09.18.772,MA Experiment 2,2021.1.2,MacIntel,59.99880002,3,7,109,29,1,,,,,
1.1621,response_2,shortValid,FOREARM,ASBESTOS,,,,,,PARTY,SANCTUARY,short,resources/sound/trials/audio_stim_human50.mp3,60fd0562ac82c2e3436d357f,21,Female,Left handed,2021-07-26_21h09.18.772,MA Experiment 2,2021.1.2,MacIntel,59.99880002,3,8,110,14,1,,,,,
1.1121,response_2,shortFoil,SADDLE,STRAWBERRY,,,,,,RUBBER,PROPERTY,short,resources/sound/trials/audio_stim_human0.mp3,60fd0562ac82c2e3436d357f,21,Female,Left handed,2021-07-26_21h09.18.772,MA Experiment 2,2021.1.2,MacIntel,59.99880002,3,9,111,12,1,,,,,
1.0955,response_2,shortFoil,JURY,ENAMEL,,,,,,ROBBER,RATTLESNAKE,short,resources/sound/trials/audio_stim_human64.mp3,60fd0562ac82c2e3436d357f,21,Female,Left handed,2021-07-26_21h09.18.772,MA Experiment 2,2021.1.2,MacIntel,59.99880002,3,10,112,15,1,,,,,
0.8795,response_2,,MURAL,MONUMENT,,,,,,JOURNAL,ROBBERY,short,resources/sound/catchTrials/audio_control_human_project02.mp3,60fd0562ac82c2e3436d357f,21,Female,Left handed,2021-07-26_21h09.18.772,MA Experiment 2,2021.1.2,MacIntel,59.99880002,,,,,,0,10,10,13,1
0.979,response_1,shortValid,KETTLE,INTERVIEW,,,,,,ATHLETE,IVORY,short,resources/sound/trials/audio_stim_comp57.mp3,60fd0562ac82c2e3436d357f,21,Female,Left handed,2021-07-26_21h09.18.772,MA Experiment 2,2021.1.2,MacIntel,59.99880002,3,11,113,5,1,,,,,
1.58,response_2,longFoil,DIAL,ACROBAT,,,,,,SACRED,GALAXY,short,resources/sound/trials/audio_stim_comp1.mp3,60fd0562ac82c2e3436d357f,21,Female,Left handed,2021-07-26_21h09.18.772,MA Experiment 2,2021.1.2,MacIntel,59.99880002,3,12,114,7,1,,,,,
1.3634,response_1,shortValid,MISTRESS,ATTENDANT,,,,,,BRAINSTORM,GREEN NEEDLE,short,resources/sound/trials/audio_stim_original.mp3,60fd0562ac82c2e3436d357f,21,Female,Left handed,2021-07-26_21h09.18.772,MA Experiment 2,2021.1.2,MacIntel,59.99880002,3,13,115,16,1,,,,,
1.0461,response_1,shortValid,KERNEL,OXYGEN,,,,,,WHISTLE,TREASURER,long,resources/sound/trials/audio_stim_comp12.mp3,60fd0562ac82c2e3436d357f,21,Female,Left handed,2021-07-26_21h09.18.772,MA Experiment 2,2021.1.2,MacIntel,59.99880002,3,14,116,20,1,,,,,
1.779,response_1,,STOCKING,ENVELOPE,,,,,,POISON,REVOLVER,long,resources/sound/catchTrials/audio_control_human_project01.mp3,60fd0562ac82c2e3436d357f,21,Female,Left handed,2021-07-26_21h09.18.772,MA Experiment 2,2021.1.2,MacIntel,59.99880002,,,,,,0,7,7,25,1
1.6624,response_2,longFoil,CABIN,GYMNASTICS,,,,,,MINER,EMERALD,long,resources/sound/trials/audio_stim_human6.mp3,60fd0562ac82c2e3436d357f,21,Female,Left handed,2021-07-26_21h09.18.772,MA Experiment 2,2021.1.2,MacIntel,59.99880002,3,15,117,30,1,,,,,
1.0108,response_1,longValid,HAMSTER,FURNITURE,,,,,,PAINTER,VEHICLE,long,resources/sound/trials/audio_stim_human47.mp3,60fd0562ac82c2e3436d357f,21,Female,Left handed,2021-07-26_21h09.18.772,MA Experiment 2,2021.1.2,MacIntel,59.99880002,3,16,118,28,1,,,,,
1.1443,response_1,shortFoil,NECKLACE,INSTRUMENT,,,,,,CONCRETE,ENEMY,long,resources/sound/trials/audio_stim_human67.mp3,60fd0562ac82c2e3436d357f,21,Female,Left handed,2021-07-26_21h09.18.772,MA Experiment 2,2021.1.2,MacIntel,59.99880002,3,17,119,27,1,,,,,
0.9453,response_1,longValid,CRYSTAL,AVENUE,,,,,,MINER,EMERALD,short,resources/sound/trials/audio_stim_comp6.mp3,60fd0562ac82c2e3436d357f,21,Female,Left handed,2021-07-26_21h09.18.772,MA Experiment 2,2021.1.2,MacIntel,59.99880002,3,18,120,1,1,,,,,
1.1113,response_2,,MURDER,ATHLETICS,,,,,,HOBBY,COLONY,short,resources/sound/catchTrials/audio_control_comp_project04.mp3,60fd0562ac82c2e3436d357f,21,Female,Left handed,2021-07-26_21h09.18.772,MA Experiment 2,2021.1.2,MacIntel,59.99880002,,,,,,0,11,11,2,1
1.446,response_2,shortValid,UNCLE,HEROIN,,,,,,DAYLIGHT,MATERIAL,short,resources/sound/trials/audio_stim_human42.mp3,60fd0562ac82c2e3436d357f,21,Female,Left handed,2021-07-26_21h09.18.772,MA Experiment 2,2021.1.2,MacIntel,59.99880002,3,19,121,9,1,,,,,
1.3115,response_2,shortValid,CIGAR,PROFESSOR,,,,,,PAINTER,VEHICLE,short,resources/sound/trials/audio_stim_human47.mp3,60fd0562ac82c2e3436d357f,21,Female,Left handed,2021-07-26_21h09.18.772,MA Experiment 2,2021.1.2,MacIntel,59.99880002,3,20,122,11,1,,,,,
0.946,response_1,shortValid,CHIPMUNK,CROCODILE,,,,,,WORKER,VISITOR,short,resources/sound/trials/audio_stim_comp17.mp3,60fd0562ac82c2e3436d357f,21,Female,Left handed,2021-07-26_21h09.18.772,MA Experiment 2,2021.1.2,MacIntel,59.99880002,3,21,123,6,1,,,,,
1.0288,response_2,shortValid,DWELLER,LECTURER,,,,,,ROBBER,RATTLESNAKE,long,resources/sound/trials/audio_stim_human64.mp3,60fd0562ac82c2e3436d357f,21,Female,Left handed,2021-07-26_21h09.18.772,MA Experiment 2,2021.1.2,MacIntel,59.99880002,3,22,124,32,1,,,,,
1.1783,response_1,,ACRE,CHOCOLATE,,,,,,VIOLET,LUBRICANT,long,resources/sound/catchTrials/audio_control_human_project07.mp3,60fd0562ac82c2e3436d357f,21,Female,Left handed,2021-07-26_21h09.18.772,MA Experiment 2,2021.1.2,MacIntel,59.99880002,,,,,,0,5,5,28,1
0.9638,response_1,longFoil,DECOY,DISSECTION,,,,,,ATHLETE,IVORY,long,resources/sound/trials/audio_stim_comp57.mp3,60fd0562ac82c2e3436d357f,21,Female,Left handed,2021-07-26_21h09.18.772,MA Experiment 2,2021.1.2,MacIntel,59.99880002,3,23,125,22,1,,,,,
1.2137,response_2,longFoil,FERTILE,FISHERMAN,,,,,,SACRED,GALAXY,long,resources/sound/trials/audio_stim_comp1.mp3,60fd0562ac82c2e3436d357f,21,Female,Left handed,2021-07-26_21h09.18.772,MA Experiment 2,2021.1.2,MacIntel,59.99880002,3,24,126,24,1,,,,,
1.5441,response_1,shortValid,ANCHOR,ADMIRAL,,,,,,RECEIPT,LIMOUSINE,long,resources/sound/trials/audio_stim_comp40.mp3,60fd0562ac82c2e3436d357f,21,Female,Left handed,2021-07-26_21h09.18.772,MA Experiment 2,2021.1.2,MacIntel,59.99880002,3,25,127,19,1,,,,,
1.3805,response_1,longFoil,GIRDLE,CIGARETTE,,,,,,WORKER,VISITOR,long,resources/sound/trials/audio_stim_comp17.mp3,60fd0562ac82c2e3436d357f,21,Female,Left handed,2021-07-26_21h09.18.772,MA Experiment 2,2021.1.2,MacIntel,59.99880002,3,26,128,23,1,,,,,
1.2298,response_1,,NURSERY,MINERAL,,,,,,JUGGLER,DANDELION,short,resources/sound/catchTrials/audio_control_human_project09.mp3,60fd0562ac82c2e3436d357f,21,Female,Left handed,2021-07-26_21h09.18.772,MA Experiment 2,2021.1.2,MacIntel,59.99880002,,,,,,0,29,29,15,1
0.9127,response_2,longFoil,CAPTAIN,CINNAMON,,,,,,MINER,EMERALD,long,resources/sound/trials/audio_stim_comp6.mp3,60fd0562ac82c2e3436d357f,21,Female,Left handed,2021-07-26_21h09.18.772,MA Experiment 2,2021.1.2,MacIntel,59.99880002,3,27,129,18,1,,,,,
1.7639,response_2,shortFoil,NATIVE,POLIO,,,,,,BRAINSTORM,GREEN NEEDLE,long,resources/sound/trials/audio_stim_original.mp3,60fd0562ac82c2e3436d357f,21,Female,Left handed,2021-07-26_21h09.18.772,MA Experiment 2,2021.1.2,MacIntel,59.99880002,3,28,130,33,1,,,,,
1.2958,response_2,longValid,SHOULDER,HOSPITAL,,,,,,PARTY,SANCTUARY,long,resources/sound/trials/audio_stim_human50.mp3,60fd0562ac82c2e3436d357f,21,Female,Left handed,2021-07-26_21h09.18.772,MA Experiment 2,2021.1.2,MacIntel,59.99880002,3,29,131,31,1,,,,,
1.9795,response_1,shortValid,EARTHWORM,FACTORY,,,,,,DRIZZLE,CARDINAL,short,resources/sound/trials/audio_stim_comp69.mp3,60fd0562ac82c2e3436d357f,21,Female,Left handed,2021-07-26_21h09.18.772,MA Experiment 2,2021.1.2,MacIntel,59.99880002,3,30,132,0,1,,,,,
1.5951,response_2,,VAPOUR,INSTRUCTOR,,,,,,BORDER,ALGEBRA,short,resources/sound/catchTrials/audio_control_comp_project00.mp3,60fd0562ac82c2e3436d357f,21,Female,Left handed,2021-07-26_21h09.18.772,MA Experiment 2,2021.1.2,MacIntel,59.99880002,,,,,,0,1,1,0,1
1.5778,response_2,shortFoil,LOBSTER,JANITOR,,,,,,HARDWARE,OVERCOAT,long,resources/sound/trials/audio_stim_human35.mp3,60fd0562ac82c2e3436d357f,21,Female,Left handed,2021-07-26_21h09.18.772,MA Experiment 2,2021.1.2,MacIntel,59.99880002,3,31,133,25,1,,,,,
1.0941,response_2,longValid,TEMPLE,GALLERY,,,,,,DRIZZLE,CARDINAL,long,resources/sound/trials/audio_stim_comp69.mp3,60fd0562ac82c2e3436d357f,21,Female,Left handed,2021-07-26_21h09.18.772,MA Experiment 2,2021.1.2,MacIntel,59.99880002,3,32,134,17,1,,,,,
1.496,response_1,longFoil,HAMMER,INDUSTRY,,,,,,MARBLE,CUSTOMER,short,resources/sound/trials/audio_stim_comp65.mp3,60fd0562ac82c2e3436d357f,21,Female,Left handed,2021-07-26_21h09.18.772,MA Experiment 2,2021.1.2,MacIntel,59.99880002,3,33,135,4,1,,,,,
