response.time,response,cueTarget,rand_foil_1,rand_foil_2,prac_trials.thisRepN,prac_trials.thisTrialN,prac_trials.thisN,prac_trials.thisIndex,prac_trials.ran,word_1,word_2,cue,file_path,participant,age,gender,handedness,date,expName,psychopyVersion,OS,frameRate,trials.thisRepN,trials.thisTrialN,trials.thisN,trials.thisIndex,trials.ran,catchTrials.thisRepN,catchTrials.thisTrialN,catchTrials.thisN,catchTrials.thisIndex,catchTrials.ran
2.7556,response_1,shortFoil,NOVEL,TANGERINE,0,0,0,10,1,SAFFRON,JAVELIN,long,resources/sound/prac_trials/practice_cue10.mp3,60fd5c60c1089aa7131fa0ed,19,Female,Right handed,2021-07-26_21h32.56.939,MA Experiment 2,2021.1.2,Linux x86_64,59.97720866,,,,,,,,,,
1.4564,response_2,shortValid,STOCKING,SETTLEMENT,0,1,1,7,1,BUCKLE,WALLABY,long,resources/sound/prac_trials/practice_cue_human7.mp3,60fd5c60c1089aa7131fa0ed,19,Female,Right handed,2021-07-26_21h32.56.939,MA Experiment 2,2021.1.2,Linux x86_64,59.97720866,,,,,,,,,,
1.2372,response_2,longValid,JURY,PROJECTOR,0,2,2,6,1,VACANT,SALVATION,long,resources/sound/prac_trials/practice_cue6.mp3,60fd5c60c1089aa7131fa0ed,19,Female,Right handed,2021-07-26_21h32.56.939,MA Experiment 2,2021.1.2,Linux x86_64,59.97720866,,,,,,,,,,
1.4904,response_2,longValid,VILLAGE,ALCOHOL,0,3,3,9,1,GRUMPY,LABYRINTH,long,resources/sound/prac_trials/practice_cue_human9.mp3,60fd5c60c1089aa7131fa0ed,19,Female,Right handed,2021-07-26_21h32.56.939,MA Experiment 2,2021.1.2,Linux x86_64,59.97720866,,,,,,,,,,
1.2408,response_2,shortFoil,HAMMER,ENVELOPE,0,4,4,2,1,RECENT,TOBACCO,short,resources/sound/prac_trials/practice_cue2.mp3,60fd5c60c1089aa7131fa0ed,19,Female,Right handed,2021-07-26_21h32.56.939,MA Experiment 2,2021.1.2,Linux x86_64,59.97720866,,,,,,,,,,
1.2881,response_2,shortValid,NURSERY,STRAWBERRY,0,5,5,4,1,FIZZY,ELECTRIC,short,resources/sound/prac_trials/practice_cue4.mp3,60fd5c60c1089aa7131fa0ed,19,Female,Right handed,2021-07-26_21h32.56.939,MA Experiment 2,2021.1.2,Linux x86_64,59.97720866,,,,,,,,,,
1.0759,response_1,longValid,BISHOP,AMBULANCE,0,6,6,0,1,AARDVARK,FALLACY,short,resources/sound/prac_trials/practice_cue0.mp3,60fd5c60c1089aa7131fa0ed,19,Female,Right handed,2021-07-26_21h32.56.939,MA Experiment 2,2021.1.2,Linux x86_64,59.97720866,,,,,,,,,,
1.59,response_1,longValid,INVOICE,CAMERA,0,7,7,11,1,KETCHUP,GONDOLA,long,resources/sound/prac_trials/practice_cue_human11.mp3,60fd5c60c1089aa7131fa0ed,19,Female,Right handed,2021-07-26_21h32.56.939,MA Experiment 2,2021.1.2,Linux x86_64,59.97720866,,,,,,,,,,
1.1566,response_2,shortValid,BEETLE,LECTURER,0,8,8,5,1,NONSENSE,OASIS,short,resources/sound/prac_trials/practice_cue_human5.mp3,60fd5c60c1089aa7131fa0ed,19,Female,Right handed,2021-07-26_21h32.56.939,MA Experiment 2,2021.1.2,Linux x86_64,59.97720866,,,,,,,,,,
2.3243,response_1,longFoil,SHOULDER,GYMNASTICS,0,9,9,8,1,DAGGER,EMPHASIS,long,resources/sound/prac_trials/practice_cue8.mp3,60fd5c60c1089aa7131fa0ed,19,Female,Right handed,2021-07-26_21h32.56.939,MA Experiment 2,2021.1.2,Linux x86_64,59.97720866,,,,,,,,,,
1.439,response_2,shortFoil,PODIUM,VINEGAR,0,10,10,3,1,EAGER,QUALIFY,short,resources/sound/prac_trials/practice_cue_human3.mp3,60fd5c60c1089aa7131fa0ed,19,Female,Right handed,2021-07-26_21h32.56.939,MA Experiment 2,2021.1.2,Linux x86_64,59.97720866,,,,,,,,,,
1.0899,response_2,longFoil,TWEEZER,CROCODILE,0,11,11,1,1,CABLE,REPUBLIC,short,resources/sound/prac_trials/practice_cue_human1.mp3,60fd5c60c1089aa7131fa0ed,19,Female,Right handed,2021-07-26_21h32.56.939,MA Experiment 2,2021.1.2,Linux x86_64,59.97720866,,,,,,,,,,
1.3411,response_2,longFoil,PATIENT,MOLECULE,,,,,,ATHLETE,IVORY,long,resources/sound/trials/audio_stim_comp57.mp3,60fd5c60c1089aa7131fa0ed,19,Female,Right handed,2021-07-26_21h32.56.939,MA Experiment 2,2021.1.2,Linux x86_64,59.97720866,0,0,0,22,1,,,,,
1.841,response_1,longFoil,PIPING,BEVERAGE,,,,,,BRAINSTORM,GREEN NEEDLE,short,resources/sound/trials/audio_stim_original.mp3,60fd5c60c1089aa7131fa0ed,19,Female,Right handed,2021-07-26_21h32.56.939,MA Experiment 2,2021.1.2,Linux x86_64,59.97720866,0,1,1,16,1,,,,,
1.6731,response_1,longValid,MORNING,PROFESSOR,,,,,,PAINTER,VEHICLE,short,resources/sound/trials/audio_stim_human47.mp3,60fd5c60c1089aa7131fa0ed,19,Female,Right handed,2021-07-26_21h32.56.939,MA Experiment 2,2021.1.2,Linux x86_64,59.97720866,0,2,2,11,1,,,,,
1.5207,response_2,,HARBOUR,FAMILY,,,,,,HOBBY,COLONY,long,resources/sound/catchTrials/audio_control_human_project04.mp3,60fd5c60c1089aa7131fa0ed,19,Female,Right handed,2021-07-26_21h32.56.939,MA Experiment 2,2021.1.2,Linux x86_64,59.97720866,,,,,,0,11,11,27,1
1.6402,response_2,longValid,CRYSTAL,GORILLA,,,,,,MINER,EMERALD,long,resources/sound/trials/audio_stim_comp6.mp3,60fd5c60c1089aa7131fa0ed,19,Female,Right handed,2021-07-26_21h32.56.939,MA Experiment 2,2021.1.2,Linux x86_64,59.97720866,0,3,3,18,1,,,,,
1.9395,response_2,longValid,ANCHOR,ALPHABET,,,,,,DRIZZLE,CARDINAL,long,resources/sound/trials/audio_stim_comp69.mp3,60fd5c60c1089aa7131fa0ed,19,Female,Right handed,2021-07-26_21h32.56.939,MA Experiment 2,2021.1.2,Linux x86_64,59.97720866,0,4,4,17,1,,,,,
1.1217,response_1,longFoil,SINGER,HURRICANE,,,,,,BRAINSTORM,GREEN NEEDLE,long,resources/sound/trials/audio_stim_original.mp3,60fd5c60c1089aa7131fa0ed,19,Female,Right handed,2021-07-26_21h32.56.939,MA Experiment 2,2021.1.2,Linux x86_64,59.97720866,0,5,5,33,1,,,,,
0.9069,response_1,shortFoil,FERTILE,AVENUE,,,,,,SACRED,GALAXY,short,resources/sound/trials/audio_stim_comp1.mp3,60fd5c60c1089aa7131fa0ed,19,Female,Right handed,2021-07-26_21h32.56.939,MA Experiment 2,2021.1.2,Linux x86_64,59.97720866,0,6,6,7,1,,,,,
1.5238,response_2,,MUSCLE,CIGARETTE,,,,,,HOBBY,COLONY,short,resources/sound/catchTrials/audio_control_comp_project04.mp3,60fd5c60c1089aa7131fa0ed,19,Female,Right handed,2021-07-26_21h32.56.939,MA Experiment 2,2021.1.2,Linux x86_64,59.97720866,,,,,,0,10,10,2,1
1.491,response_2,longValid,NECKLACE,DISSECTION,,,,,,WHISTLE,TREASURER,long,resources/sound/trials/audio_stim_comp12.mp3,60fd5c60c1089aa7131fa0ed,19,Female,Right handed,2021-07-26_21h32.56.939,MA Experiment 2,2021.1.2,Linux x86_64,59.97720866,0,7,7,20,1,,,,,
1.4252,response_1,longFoil,TRAITOR,FACTORY,,,,,,WORKER,VISITOR,short,resources/sound/trials/audio_stim_comp17.mp3,60fd5c60c1089aa7131fa0ed,19,Female,Right handed,2021-07-26_21h32.56.939,MA Experiment 2,2021.1.2,Linux x86_64,59.97720866,0,8,8,6,1,,,,,
1.6229,response_1,longValid,PERSON,ACROBAT,,,,,,MINER,EMERALD,long,resources/sound/trials/audio_stim_human6.mp3,60fd5c60c1089aa7131fa0ed,19,Female,Right handed,2021-07-26_21h32.56.939,MA Experiment 2,2021.1.2,Linux x86_64,59.97720866,0,9,9,30,1,,,,,
1.2202,response_1,longValid,WAFER,TEMPERATURE,,,,,,MARBLE,CUSTOMER,long,resources/sound/trials/audio_stim_comp65.mp3,60fd5c60c1089aa7131fa0ed,19,Female,Right handed,2021-07-26_21h32.56.939,MA Experiment 2,2021.1.2,Linux x86_64,59.97720866,0,10,10,21,1,,,,,
1.1734,response_2,,PIANO,CANDLELIGHT,,,,,,BORDER,ALGEBRA,long,resources/sound/catchTrials/audio_control_comp_project00.mp3,60fd5c60c1089aa7131fa0ed,19,Female,Right handed,2021-07-26_21h32.56.939,MA Experiment 2,2021.1.2,Linux x86_64,59.97720866,,,,,,0,8,8,16,1
1.688,response_1,longValid,PRINCESS,MICROSCOPE,,,,,,CONCRETE,ENEMY,long,resources/sound/trials/audio_stim_human67.mp3,60fd5c60c1089aa7131fa0ed,19,Female,Right handed,2021-07-26_21h32.56.939,MA Experiment 2,2021.1.2,Linux x86_64,59.97720866,0,11,11,27,1,,,,,
1.5732,response_2,shortValid,FEVER,JANITOR,,,,,,HARDWARE,OVERCOAT,long,resources/sound/trials/audio_stim_human35.mp3,60fd5c60c1089aa7131fa0ed,19,Female,Right handed,2021-07-26_21h32.56.939,MA Experiment 2,2021.1.2,Linux x86_64,59.97720866,0,12,12,25,1,,,,,
1.3727,response_1,shortValid,BUTTER,MERCURY,,,,,,ATHLETE,IVORY,short,resources/sound/trials/audio_stim_comp57.mp3,60fd5c60c1089aa7131fa0ed,19,Female,Right handed,2021-07-26_21h32.56.939,MA Experiment 2,2021.1.2,Linux x86_64,59.97720866,0,13,13,5,1,,,,,
1.274,response_2,shortFoil,FOREARM,POTATO,,,,,,SACRED,GALAXY,long,resources/sound/trials/audio_stim_comp1.mp3,60fd5c60c1089aa7131fa0ed,19,Female,Right handed,2021-07-26_21h32.56.939,MA Experiment 2,2021.1.2,Linux x86_64,59.97720866,0,14,14,24,1,,,,,
1.4232,response_2,,FAIRY,CITIZEN,,,,,,IRIS,VIOLIN,long,resources/sound/catchTrials/audio_control_human_project12.mp3,60fd5c60c1089aa7131fa0ed,19,Female,Right handed,2021-07-26_21h32.56.939,MA Experiment 2,2021.1.2,Linux x86_64,59.97720866,,,,,,0,22,22,24,1
1.2406,response_2,longFoil,UNCLE,POLICEMAN,,,,,,HARDWARE,OVERCOAT,short,resources/sound/trials/audio_stim_human35.mp3,60fd5c60c1089aa7131fa0ed,19,Female,Right handed,2021-07-26_21h32.56.939,MA Experiment 2,2021.1.2,Linux x86_64,59.97720866,0,15,15,8,1,,,,,
1.0891,response_2,longFoil,BURNER,FURNITURE,,,,,,WORKER,VISITOR,long,resources/sound/trials/audio_stim_comp17.mp3,60fd5c60c1089aa7131fa0ed,19,Female,Right handed,2021-07-26_21h32.56.939,MA Experiment 2,2021.1.2,Linux x86_64,59.97720866,0,16,16,23,1,,,,,
2.7769,response_2,longFoil,VESSEL,ABDOMEN,,,,,,RUBBER,PROPERTY,short,resources/sound/trials/audio_stim_human0.mp3,60fd5c60c1089aa7131fa0ed,19,Female,Right handed,2021-07-26_21h32.56.939,MA Experiment 2,2021.1.2,Linux x86_64,59.97720866,0,17,17,12,1,,,,,
1.2428,response_2,shortFoil,MEASLES,COMMITTEE,,,,,,WHISTLE,TREASURER,short,resources/sound/trials/audio_stim_comp12.mp3,60fd5c60c1089aa7131fa0ed,19,Female,Right handed,2021-07-26_21h32.56.939,MA Experiment 2,2021.1.2,Linux x86_64,59.97720866,0,18,18,3,1,,,,,
1.4078,response_2,,WRITING,INSTRUMENT,,,,,,IRIS,VIOLIN,short,resources/sound/catchTrials/audio_control_comp_project12.mp3,60fd5c60c1089aa7131fa0ed,19,Female,Right handed,2021-07-26_21h32.56.939,MA Experiment 2,2021.1.2,Linux x86_64,59.97720866,,,,,,0,31,31,4,1
1.2387,response_2,shortFoil,DUEL,APPLIANCE,,,,,,MARBLE,CUSTOMER,short,resources/sound/trials/audio_stim_comp65.mp3,60fd5c60c1089aa7131fa0ed,19,Female,Right handed,2021-07-26_21h32.56.939,MA Experiment 2,2021.1.2,Linux x86_64,59.97720866,0,19,19,4,1,,,,,
1.9396,response_2,longValid,POLO,ASBESTOS,,,,,,PARTY,SANCTUARY,short,resources/sound/trials/audio_stim_human50.mp3,60fd5c60c1089aa7131fa0ed,19,Female,Right handed,2021-07-26_21h32.56.939,MA Experiment 2,2021.1.2,Linux x86_64,59.97720866,0,20,20,14,1,,,,,
1.1411,response_2,longValid,NATIVE,ORNAMENT,,,,,,ROBBER,RATTLESNAKE,long,resources/sound/trials/audio_stim_human64.mp3,60fd5c60c1089aa7131fa0ed,19,Female,Right handed,2021-07-26_21h32.56.939,MA Experiment 2,2021.1.2,Linux x86_64,59.97720866,0,21,21,32,1,,,,,
1.3895,response_1,shortValid,MURDER,BUTTERFLY,,,,,,PARTY,SANCTUARY,long,resources/sound/trials/audio_stim_human50.mp3,60fd5c60c1089aa7131fa0ed,19,Female,Right handed,2021-07-26_21h32.56.939,MA Experiment 2,2021.1.2,Linux x86_64,59.97720866,0,22,22,31,1,,,,,
1.4549,response_1,,SULPHUR,GINGERBREAD,,,,,,VIOLET,LUBRICANT,short,resources/sound/catchTrials/audio_control_comp_project07.mp3,60fd5c60c1089aa7131fa0ed,19,Female,Right handed,2021-07-26_21h32.56.939,MA Experiment 2,2021.1.2,Linux x86_64,59.97720866,,,,,,0,16,16,3,1
1.2906,response_2,longValid,CAPTAIN,SPECIALIST,,,,,,RECEIPT,LIMOUSINE,long,resources/sound/trials/audio_stim_comp40.mp3,60fd5c60c1089aa7131fa0ed,19,Female,Right handed,2021-07-26_21h32.56.939,MA Experiment 2,2021.1.2,Linux x86_64,59.97720866,0,23,23,19,1,,,,,
1.5249,response_1,longFoil,CHIPMUNK,MINERAL,,,,,,MINER,EMERALD,short,resources/sound/trials/audio_stim_human6.mp3,60fd5c60c1089aa7131fa0ed,19,Female,Right handed,2021-07-26_21h32.56.939,MA Experiment 2,2021.1.2,Linux x86_64,59.97720866,0,24,24,13,1,,,,,
1.4724,response_2,shortFoil,SHEEPSKIN,CINNAMON,,,,,,RECEIPT,LIMOUSINE,short,resources/sound/trials/audio_stim_comp40.mp3,60fd5c60c1089aa7131fa0ed,19,Female,Right handed,2021-07-26_21h32.56.939,MA Experiment 2,2021.1.2,Linux x86_64,59.97720866,0,25,25,2,1,,,,,
0.8911,response_1,longFoil,HURDLE,CLARINET,,,,,,DRIZZLE,CARDINAL,short,resources/sound/trials/audio_stim_comp69.mp3,60fd5c60c1089aa7131fa0ed,19,Female,Right handed,2021-07-26_21h32.56.939,MA Experiment 2,2021.1.2,Linux x86_64,59.97720866,0,26,26,0,1,,,,,
1.2408,response_2,,MEDICINE,ATTENDANT,,,,,,BORDER,ALGEBRA,short,resources/sound/catchTrials/audio_control_comp_project00.mp3,60fd5c60c1089aa7131fa0ed,19,Female,Right handed,2021-07-26_21h32.56.939,MA Experiment 2,2021.1.2,Linux x86_64,59.97720866,,,,,,0,24,24,0,1
1.2753,response_1,shortValid,CANTEEN,HEADQUARTERS,,,,,,PAINTER,VEHICLE,long,resources/sound/trials/audio_stim_human47.mp3,60fd5c60c1089aa7131fa0ed,19,Female,Right handed,2021-07-26_21h32.56.939,MA Experiment 2,2021.1.2,Linux x86_64,59.97720866,0,27,27,28,1,,,,,
0.9601,response_1,longFoil,WIRE,HANDKERCHIEF,,,,,,MINER,EMERALD,short,resources/sound/trials/audio_stim_comp6.mp3,60fd5c60c1089aa7131fa0ed,19,Female,Right handed,2021-07-26_21h32.56.939,MA Experiment 2,2021.1.2,Linux x86_64,59.97720866,0,28,28,1,1,,,,,
1.4054,response_1,shortValid,OFFICE,CATHEDRAL,,,,,,DAYLIGHT,MATERIAL,long,resources/sound/trials/audio_stim_human42.mp3,60fd5c60c1089aa7131fa0ed,19,Female,Right handed,2021-07-26_21h32.56.939,MA Experiment 2,2021.1.2,Linux x86_64,59.97720866,0,29,29,26,1,,,,,
1.6163,response_1,shortValid,DECOY,OPENING,,,,,,DAYLIGHT,MATERIAL,short,resources/sound/trials/audio_stim_human42.mp3,60fd5c60c1089aa7131fa0ed,19,Female,Right handed,2021-07-26_21h32.56.939,MA Experiment 2,2021.1.2,Linux x86_64,59.97720866,0,30,30,9,1,,,,,
1.8228,response_2,,VALLEY,OXYGEN,,,,,,NAVY,RECTANGLE,short,resources/sound/catchTrials/audio_control_comp_project06.mp3,60fd5c60c1089aa7131fa0ed,19,Female,Right handed,2021-07-26_21h32.56.939,MA Experiment 2,2021.1.2,Linux x86_64,59.97720866,,,,,,0,18,18,6,1
1.3212,response_2,shortValid,NEIGHBOUR,GOVERNMENT,,,,,,CONCRETE,ENEMY,short,resources/sound/trials/audio_stim_human67.mp3,60fd5c60c1089aa7131fa0ed,19,Female,Right handed,2021-07-26_21h32.56.939,MA Experiment 2,2021.1.2,Linux x86_64,59.97720866,0,31,31,10,1,,,,,
0.8066,response_1,longFoil,TEMPLE,REFEREE,,,,,,RUBBER,PROPERTY,long,resources/sound/trials/audio_stim_human0.mp3,60fd5c60c1089aa7131fa0ed,19,Female,Right handed,2021-07-26_21h32.56.939,MA Experiment 2,2021.1.2,Linux x86_64,59.97720866,0,32,32,29,1,,,,,
1.8222,response_2,shortFoil,MISTRESS,HEROIN,,,,,,ROBBER,RATTLESNAKE,short,resources/sound/trials/audio_stim_human64.mp3,60fd5c60c1089aa7131fa0ed,19,Female,Right handed,2021-07-26_21h32.56.939,MA Experiment 2,2021.1.2,Linux x86_64,59.97720866,0,33,33,15,1,,,,,
2.5876,response_1,shortFoil,CIGAR,SAXOPHONE,,,,,,ATHLETE,IVORY,long,resources/sound/trials/audio_stim_comp57.mp3,60fd5c60c1089aa7131fa0ed,19,Female,Right handed,2021-07-26_21h32.56.939,MA Experiment 2,2021.1.2,Linux x86_64,59.97720866,1,0,34,22,1,,,,,
0.9396,response_4,longValid,CURFEW,AMMONIA,,,,,,WHISTLE,TREASURER,short,resources/sound/trials/audio_stim_comp12.mp3,60fd5c60c1089aa7131fa0ed,19,Female,Right handed,2021-07-26_21h32.56.939,MA Experiment 2,2021.1.2,Linux x86_64,59.97720866,1,1,35,3,1,,,,,
1.0412,response_2,longFoil,TUMBLE,PHYSICIAN,,,,,,MARBLE,CUSTOMER,long,resources/sound/trials/audio_stim_comp65.mp3,60fd5c60c1089aa7131fa0ed,19,Female,Right handed,2021-07-26_21h32.56.939,MA Experiment 2,2021.1.2,Linux x86_64,59.97720866,1,2,36,21,1,,,,,
1.657,response_2,,KETTLE,MESSENGER,,,,,,CORNER,ENGINEER,short,resources/sound/catchTrials/audio_control_human_project14.mp3,60fd5c60c1089aa7131fa0ed,19,Female,Right handed,2021-07-26_21h32.56.939,MA Experiment 2,2021.1.2,Linux x86_64,59.97720866,,,,,,0,4,4,10,1
2.3735,response_2,shortFoil,EARTHWORM,ATHLETICS,,,,,,WORKER,VISITOR,long,resources/sound/trials/audio_stim_comp17.mp3,60fd5c60c1089aa7131fa0ed,19,Female,Right handed,2021-07-26_21h32.56.939,MA Experiment 2,2021.1.2,Linux x86_64,59.97720866,1,3,37,23,1,,,,,
1.4562,response_1,shortValid,RABBI,INTERVIEW,,,,,,DRIZZLE,CARDINAL,short,resources/sound/trials/audio_stim_comp69.mp3,60fd5c60c1089aa7131fa0ed,19,Female,Right handed,2021-07-26_21h32.56.939,MA Experiment 2,2021.1.2,Linux x86_64,59.97720866,1,4,38,0,1,,,,,
1.5561,response_1,shortFoil,INCOME,CABINET,,,,,,PAINTER,VEHICLE,long,resources/sound/trials/audio_stim_human47.mp3,60fd5c60c1089aa7131fa0ed,19,Female,Right handed,2021-07-26_21h32.56.939,MA Experiment 2,2021.1.2,Linux x86_64,59.97720866,1,5,39,28,1,,,,,
1.3921,response_4,longFoil,WINDOW,ENAMEL,,,,,,MINER,EMERALD,long,resources/sound/trials/audio_stim_comp6.mp3,60fd5c60c1089aa7131fa0ed,19,Female,Right handed,2021-07-26_21h32.56.939,MA Experiment 2,2021.1.2,Linux x86_64,59.97720866,1,6,40,18,1,,,,,
1.9242,response_2,,SCOOTER,POLIO,,,,,,NAVY,RECTANGLE,short,resources/sound/catchTrials/audio_control_human_project06.mp3,60fd5c60c1089aa7131fa0ed,19,Female,Right handed,2021-07-26_21h32.56.939,MA Experiment 2,2021.1.2,Linux x86_64,59.97720866,,,,,,0,12,12,14,1
2.306,response_2,longFoil,DOORWAY,MECHANIC,,,,,,SACRED,GALAXY,short,resources/sound/trials/audio_stim_comp1.mp3,60fd5c60c1089aa7131fa0ed,19,Female,Right handed,2021-07-26_21h32.56.939,MA Experiment 2,2021.1.2,Linux x86_64,59.97720866,1,7,41,7,1,,,,,
0.5913,response_1,shortFoil,GIRDLE,UMBRELLA,,,,,,PARTY,SANCTUARY,short,resources/sound/trials/audio_stim_human50.mp3,60fd5c60c1089aa7131fa0ed,19,Female,Right handed,2021-07-26_21h32.56.939,MA Experiment 2,2021.1.2,Linux x86_64,59.97720866,1,8,42,14,1,,,,,
2.4219,response_3,shortValid,DWELLER,INSTRUCTOR,,,,,,WHISTLE,TREASURER,long,resources/sound/trials/audio_stim_comp12.mp3,60fd5c60c1089aa7131fa0ed,19,Female,Right handed,2021-07-26_21h32.56.939,MA Experiment 2,2021.1.2,Linux x86_64,59.97720866,1,9,43,20,1,,,,,
2.1682,response_1,shortValid,ACRE,PHOTOGRAPH,,,,,,WORKER,VISITOR,short,resources/sound/trials/audio_stim_comp17.mp3,60fd5c60c1089aa7131fa0ed,19,Female,Right handed,2021-07-26_21h32.56.939,MA Experiment 2,2021.1.2,Linux x86_64,59.97720866,1,10,44,6,1,,,,,
1.2912,response_2,,CABIN,DESTROYER,,,,,,HOBBY,COLONY,long,resources/sound/catchTrials/audio_control_comp_project04.mp3,60fd5c60c1089aa7131fa0ed,19,Female,Right handed,2021-07-26_21h32.56.939,MA Experiment 2,2021.1.2,Linux x86_64,59.97720866,,,,,,0,25,25,18,1
2.1046,response_1,shortValid,CEREAL,INDUSTRY,,,,,,DRIZZLE,CARDINAL,long,resources/sound/trials/audio_stim_comp69.mp3,60fd5c60c1089aa7131fa0ed,19,Female,Right handed,2021-07-26_21h32.56.939,MA Experiment 2,2021.1.2,Linux x86_64,59.97720866,1,11,45,17,1,,,,,
1.0571,response_1,shortValid,LOBSTER,NEWSPAPER,,,,,,PAINTER,VEHICLE,short,resources/sound/trials/audio_stim_human47.mp3,60fd5c60c1089aa7131fa0ed,19,Female,Right handed,2021-07-26_21h32.56.939,MA Experiment 2,2021.1.2,Linux x86_64,59.97720866,1,12,46,11,1,,,,,
1.4588,response_2,shortFoil,SADDLE,CHOCOLATE,,,,,,ROBBER,RATTLESNAKE,long,resources/sound/trials/audio_stim_human64.mp3,60fd5c60c1089aa7131fa0ed,19,Female,Right handed,2021-07-26_21h32.56.939,MA Experiment 2,2021.1.2,Linux x86_64,59.97720866,1,13,47,32,1,,,,,
1.3738,response_1,longValid,BERRY,ICICLE,,,,,,ATHLETE,IVORY,short,resources/sound/trials/audio_stim_comp57.mp3,60fd5c60c1089aa7131fa0ed,19,Female,Right handed,2021-07-26_21h32.56.939,MA Experiment 2,2021.1.2,Linux x86_64,59.97720866,1,14,48,5,1,,,,,
1.2908,response_2,,SEGMENT,GRASSHOPPER,,,,,,CORNER,ENGINEER,short,resources/sound/catchTrials/audio_control_comp_project14.mp3,60fd5c60c1089aa7131fa0ed,19,Female,Right handed,2021-07-26_21h32.56.939,MA Experiment 2,2021.1.2,Linux x86_64,59.97720866,,,,,,0,17,17,1,1
1.7897,response_1,longFoil,MURAL,HOSPITAL,,,,,,RECEIPT,LIMOUSINE,long,resources/sound/trials/audio_stim_comp40.mp3,60fd5c60c1089aa7131fa0ed,19,Female,Right handed,2021-07-26_21h32.56.939,MA Experiment 2,2021.1.2,Linux x86_64,59.97720866,1,15,49,19,1,,,,,
1.5568,response_2,longFoil,TORTURE,PROPELLER,,,,,,MARBLE,CUSTOMER,short,resources/sound/trials/audio_stim_comp65.mp3,60fd5c60c1089aa7131fa0ed,19,Female,Right handed,2021-07-26_21h32.56.939,MA Experiment 2,2021.1.2,Linux x86_64,59.97720866,1,16,50,4,1,,,,,
2.059,response_1,longValid,LEADER,GALLERY,,,,,,MINER,EMERALD,short,resources/sound/trials/audio_stim_comp6.mp3,60fd5c60c1089aa7131fa0ed,19,Female,Right handed,2021-07-26_21h32.56.939,MA Experiment 2,2021.1.2,Linux x86_64,59.97720866,1,17,51,1,1,,,,,
0.9732,response_1,shortFoil,LIGHTNING,LEMONADE,,,,,,BRAINSTORM,GREEN NEEDLE,long,resources/sound/trials/audio_stim_original.mp3,60fd5c60c1089aa7131fa0ed,19,Female,Right handed,2021-07-26_21h32.56.939,MA Experiment 2,2021.1.2,Linux x86_64,59.97720866,1,18,52,33,1,,,,,
0.8883,response_2,,RUSTY,MINISTER,,,,,,ICY,JITTERBUG,short,resources/sound/catchTrials/audio_control_comp_project08.mp3,60fd5c60c1089aa7131fa0ed,19,Female,Right handed,2021-07-26_21h32.56.939,MA Experiment 2,2021.1.2,Linux x86_64,59.97720866,,,,,,0,6,6,7,1
0.6235,response_1,longFoil,MOONLIGHT,MOSQUITO,,,,,,PARTY,SANCTUARY,long,resources/sound/trials/audio_stim_human50.mp3,60fd5c60c1089aa7131fa0ed,19,Female,Right handed,2021-07-26_21h32.56.939,MA Experiment 2,2021.1.2,Linux x86_64,59.97720866,1,19,53,31,1,,,,,
1.6746,response_2,longValid,VAPOUR,DIAMOND,,,,,,RECEIPT,LIMOUSINE,short,resources/sound/trials/audio_stim_comp40.mp3,60fd5c60c1089aa7131fa0ed,19,Female,Right handed,2021-07-26_21h32.56.939,MA Experiment 2,2021.1.2,Linux x86_64,59.97720866,1,20,54,2,1,,,,,
0.7398,response_1,longValid,DIAL,FISHERMAN,,,,,,SACRED,GALAXY,long,resources/sound/trials/audio_stim_comp1.mp3,60fd5c60c1089aa7131fa0ed,19,Female,Right handed,2021-07-26_21h32.56.939,MA Experiment 2,2021.1.2,Linux x86_64,59.97720866,1,21,55,24,1,,,,,
1.842,response_2,shortFoil,PICTURE,ANTIQUE,,,,,,RUBBER,PROPERTY,long,resources/sound/trials/audio_stim_human0.mp3,60fd5c60c1089aa7131fa0ed,19,Female,Right handed,2021-07-26_21h32.56.939,MA Experiment 2,2021.1.2,Linux x86_64,59.97720866,1,22,56,29,1,,,,,
1.6205,response_2,,SOFA,INSTITUTE,,,,,,SPINACH,APRICOT,long,resources/sound/catchTrials/audio_control_comp_project18.mp3,60fd5c60c1089aa7131fa0ed,19,Female,Right handed,2021-07-26_21h32.56.939,MA Experiment 2,2021.1.2,Linux x86_64,59.97720866,,,,,,0,0,0,21,1
0.7584,response_1,shortFoil,EVENING,CAPITAL,,,,,,DAYLIGHT,MATERIAL,long,resources/sound/trials/audio_stim_human42.mp3,60fd5c60c1089aa7131fa0ed,19,Female,Right handed,2021-07-26_21h32.56.939,MA Experiment 2,2021.1.2,Linux x86_64,59.97720866,1,23,57,26,1,,,,,
1.1402,response_2,shortFoil,LIQUID,EMULSION,,,,,,HARDWARE,OVERCOAT,long,resources/sound/trials/audio_stim_human35.mp3,60fd5c60c1089aa7131fa0ed,19,Female,Right handed,2021-07-26_21h32.56.939,MA Experiment 2,2021.1.2,Linux x86_64,59.97720866,1,24,58,25,1,,,,,
1.809,response_1,longFoil,OLIVE,MONUMENT,,,,,,DAYLIGHT,MATERIAL,short,resources/sound/trials/audio_stim_human42.mp3,60fd5c60c1089aa7131fa0ed,19,Female,Right handed,2021-07-26_21h32.56.939,MA Experiment 2,2021.1.2,Linux x86_64,59.97720866,1,25,59,9,1,,,,,
1.8245,response_2,longFoil,FATHER,MEDICINE,,,,,,CONCRETE,ENEMY,short,resources/sound/trials/audio_stim_human67.mp3,60fd5c60c1089aa7131fa0ed,19,Female,Right handed,2021-07-26_21h32.56.939,MA Experiment 2,2021.1.2,Linux x86_64,59.97720866,1,26,60,10,1,,,,,
0.6452,response_2,,KERNEL,HONEYMOON,,,,,,ICY,JITTERBUG,long,resources/sound/catchTrials/audio_control_comp_project08.mp3,60fd5c60c1089aa7131fa0ed,19,Female,Right handed,2021-07-26_21h32.56.939,MA Experiment 2,2021.1.2,Linux x86_64,59.97720866,,,,,,0,29,29,23,1
0.6406,response_2,shortValid,DIVING,RETAILER,,,,,,HARDWARE,OVERCOAT,short,resources/sound/trials/audio_stim_human35.mp3,60fd5c60c1089aa7131fa0ed,19,Female,Right handed,2021-07-26_21h32.56.939,MA Experiment 2,2021.1.2,Linux x86_64,59.97720866,1,27,61,8,1,,,,,
1.2891,response_1,shortFoil,STATION,NEIGHBOURHOOD,,,,,,CONCRETE,ENEMY,long,resources/sound/trials/audio_stim_human67.mp3,60fd5c60c1089aa7131fa0ed,19,Female,Right handed,2021-07-26_21h32.56.939,MA Experiment 2,2021.1.2,Linux x86_64,59.97720866,1,28,62,27,1,,,,,
0.6079,response_2,longValid,KENNEL,INJURY,,,,,,MINER,EMERALD,short,resources/sound/trials/audio_stim_human6.mp3,60fd5c60c1089aa7131fa0ed,19,Female,Right handed,2021-07-26_21h32.56.939,MA Experiment 2,2021.1.2,Linux x86_64,59.97720866,1,29,63,13,1,,,,,
1.475,response_1,shortFoil,HAMSTER,CARNATION,,,,,,MINER,EMERALD,long,resources/sound/trials/audio_stim_human6.mp3,60fd5c60c1089aa7131fa0ed,19,Female,Right handed,2021-07-26_21h32.56.939,MA Experiment 2,2021.1.2,Linux x86_64,59.97720866,1,30,64,30,1,,,,,
1.507,response_2,,GRADUATE,ADMIRAL,,,,,,CORNER,ENGINEER,long,resources/sound/catchTrials/audio_control_human_project14.mp3,60fd5c60c1089aa7131fa0ed,19,Female,Right handed,2021-07-26_21h32.56.939,MA Experiment 2,2021.1.2,Linux x86_64,59.97720866,,,,,,0,1,1,26,1
1.6079,response_2,longValid,WALRUS,CONVENTION,,,,,,RUBBER,PROPERTY,short,resources/sound/trials/audio_stim_human0.mp3,60fd5c60c1089aa7131fa0ed,19,Female,Right handed,2021-07-26_21h32.56.939,MA Experiment 2,2021.1.2,Linux x86_64,59.97720866,1,31,65,12,1,,,,,
1.7226,response_2,longFoil,NAPKIN,CORRIDOR,,,,,,ROBBER,RATTLESNAKE,short,resources/sound/trials/audio_stim_human64.mp3,60fd5c60c1089aa7131fa0ed,19,Female,Right handed,2021-07-26_21h32.56.939,MA Experiment 2,2021.1.2,Linux x86_64,59.97720866,1,32,66,15,1,,,,,
1.2292,response_1,shortFoil,DANCER,INFECTION,,,,,,BRAINSTORM,GREEN NEEDLE,short,resources/sound/trials/audio_stim_original.mp3,60fd5c60c1089aa7131fa0ed,19,Female,Right handed,2021-07-26_21h32.56.939,MA Experiment 2,2021.1.2,Linux x86_64,59.97720866,1,33,67,16,1,,,,,
0.909,response_2,shortValid,SODA,FIREWOOD,,,,,,PARTY,SANCTUARY,short,resources/sound/trials/audio_stim_human50.mp3,60fd5c60c1089aa7131fa0ed,19,Female,Right handed,2021-07-26_21h32.56.939,MA Experiment 2,2021.1.2,Linux x86_64,59.97720866,2,0,68,14,1,,,,,
1.775,response_2,longFoil,BEETLE,CROCODILE,,,,,,HARDWARE,OVERCOAT,long,resources/sound/trials/audio_stim_human35.mp3,60fd5c60c1089aa7131fa0ed,19,Female,Right handed,2021-07-26_21h32.56.939,MA Experiment 2,2021.1.2,Linux x86_64,59.97720866,2,1,69,25,1,,,,,
2.11,response_1,shortFoil,LIGHTNING,CANDLELIGHT,,,,,,DAYLIGHT,MATERIAL,short,resources/sound/trials/audio_stim_human42.mp3,60fd5c60c1089aa7131fa0ed,19,Female,Right handed,2021-07-26_21h32.56.939,MA Experiment 2,2021.1.2,Linux x86_64,59.97720866,2,2,70,9,1,,,,,
2.1604,response_1,,WIRE,HONEYMOON,,,,,,POISON,REVOLVER,long,resources/sound/catchTrials/audio_control_human_project01.mp3,60fd5c60c1089aa7131fa0ed,19,Female,Right handed,2021-07-26_21h32.56.939,MA Experiment 2,2021.1.2,Linux x86_64,59.97720866,,,,,,0,28,28,25,1
0.4943,response_1,shortValid,WAFER,FACTORY,,,,,,MINER,EMERALD,long,resources/sound/trials/audio_stim_human6.mp3,60fd5c60c1089aa7131fa0ed,19,Female,Right handed,2021-07-26_21h32.56.939,MA Experiment 2,2021.1.2,Linux x86_64,59.97720866,2,3,71,30,1,,,,,
0.6411,response_2,shortFoil,CANTEEN,HOSPITAL,,,,,,RUBBER,PROPERTY,short,resources/sound/trials/audio_stim_human0.mp3,60fd5c60c1089aa7131fa0ed,19,Female,Right handed,2021-07-26_21h32.56.939,MA Experiment 2,2021.1.2,Linux x86_64,59.97720866,2,4,72,12,1,,,,,
1.1247,response_1,longFoil,PIANO,HEROIN,,,,,,SACRED,GALAXY,long,resources/sound/trials/audio_stim_comp1.mp3,60fd5c60c1089aa7131fa0ed,19,Female,Right handed,2021-07-26_21h32.56.939,MA Experiment 2,2021.1.2,Linux x86_64,59.97720866,2,5,73,24,1,,,,,
1.1404,response_1,longFoil,PODIUM,LECTURER,,,,,,RECEIPT,LIMOUSINE,short,resources/sound/trials/audio_stim_comp40.mp3,60fd5c60c1089aa7131fa0ed,19,Female,Right handed,2021-07-26_21h32.56.939,MA Experiment 2,2021.1.2,Linux x86_64,59.97720866,2,6,74,2,1,,,,,
0.5259,response_1,,FAIRY,ABDOMEN,,,,,,POISON,REVOLVER,short,resources/sound/catchTrials/audio_control_human_project01.mp3,60fd5c60c1089aa7131fa0ed,19,Female,Right handed,2021-07-26_21h32.56.939,MA Experiment 2,2021.1.2,Linux x86_64,59.97720866,,,,,,0,13,13,9,1
1.4919,response_2,shortValid,CABIN,GINGERBREAD,,,,,,MARBLE,CUSTOMER,short,resources/sound/trials/audio_stim_comp65.mp3,60fd5c60c1089aa7131fa0ed,19,Female,Right handed,2021-07-26_21h32.56.939,MA Experiment 2,2021.1.2,Linux x86_64,59.97720866,2,7,75,4,1,,,,,
1.8435,response_1,shortValid,CURFEW,MINERAL,,,,,,WORKER,VISITOR,long,resources/sound/trials/audio_stim_comp17.mp3,60fd5c60c1089aa7131fa0ed,19,Female,Right handed,2021-07-26_21h32.56.939,MA Experiment 2,2021.1.2,Linux x86_64,59.97720866,2,8,76,23,1,,,,,
0.4942,response_1,shortValid,WINDOW,MOLECULE,,,,,,MINER,EMERALD,short,resources/sound/trials/audio_stim_human6.mp3,60fd5c60c1089aa7131fa0ed,19,Female,Right handed,2021-07-26_21h32.56.939,MA Experiment 2,2021.1.2,Linux x86_64,59.97720866,2,9,77,13,1,,,,,
1.4237,response_1,longValid,GRADUATE,INSTRUMENT,,,,,,PAINTER,VEHICLE,long,resources/sound/trials/audio_stim_human47.mp3,60fd5c60c1089aa7131fa0ed,19,Female,Right handed,2021-07-26_21h32.56.939,MA Experiment 2,2021.1.2,Linux x86_64,59.97720866,2,10,78,28,1,,,,,
1.4952,response_1,,NURSERY,RETAILER,,,,,,JUGGLER,DANDELION,long,resources/sound/catchTrials/audio_control_human_project09.mp3,60fd5c60c1089aa7131fa0ed,19,Female,Right handed,2021-07-26_21h32.56.939,MA Experiment 2,2021.1.2,Linux x86_64,59.97720866,,,,,,0,7,7,31,1
2.1115,response_1,shortFoil,SCOOTER,NEIGHBOURHOOD,,,,,,ATHLETE,IVORY,short,resources/sound/trials/audio_stim_comp57.mp3,60fd5c60c1089aa7131fa0ed,19,Female,Right handed,2021-07-26_21h32.56.939,MA Experiment 2,2021.1.2,Linux x86_64,59.97720866,2,11,79,5,1,,,,,
2.0143,response_1,shortFoil,OFFICE,CAPITAL,,,,,,RECEIPT,LIMOUSINE,long,resources/sound/trials/audio_stim_comp40.mp3,60fd5c60c1089aa7131fa0ed,19,Female,Right handed,2021-07-26_21h32.56.939,MA Experiment 2,2021.1.2,Linux x86_64,59.97720866,2,12,80,19,1,,,,,
2.1915,response_1,longValid,TEMPLE,CLARINET,,,,,,CONCRETE,ENEMY,short,resources/sound/trials/audio_stim_human67.mp3,60fd5c60c1089aa7131fa0ed,19,Female,Right handed,2021-07-26_21h32.56.939,MA Experiment 2,2021.1.2,Linux x86_64,59.97720866,2,13,81,10,1,,,,,
1.3239,response_2,longValid,CRYSTAL,FURNITURE,,,,,,ATHLETE,IVORY,long,resources/sound/trials/audio_stim_comp57.mp3,60fd5c60c1089aa7131fa0ed,19,Female,Right handed,2021-07-26_21h32.56.939,MA Experiment 2,2021.1.2,Linux x86_64,59.97720866,2,14,82,22,1,,,,,
0.5921,response_1,,MUSCLE,PHYSICIAN,,,,,,VIOLET,LUBRICANT,long,resources/sound/catchTrials/audio_control_comp_project07.mp3,60fd5c60c1089aa7131fa0ed,19,Female,Right handed,2021-07-26_21h32.56.939,MA Experiment 2,2021.1.2,Linux x86_64,59.97720866,,,,,,0,20,20,19,1
1.3743,response_1,shortFoil,MEDICINE,MERCURY,,,,,,PAINTER,VEHICLE,short,resources/sound/trials/audio_stim_human47.mp3,60fd5c60c1089aa7131fa0ed,19,Female,Right handed,2021-07-26_21h32.56.939,MA Experiment 2,2021.1.2,Linux x86_64,59.97720866,2,15,83,11,1,,,,,
1.4725,response_2,shortValid,SEGMENT,OPENING,,,,,,MINER,EMERALD,short,resources/sound/trials/audio_stim_comp6.mp3,60fd5c60c1089aa7131fa0ed,19,Female,Right handed,2021-07-26_21h32.56.939,MA Experiment 2,2021.1.2,Linux x86_64,59.97720866,2,16,84,1,1,,,,,
0.6076,response_1,shortValid,HAMSTER,CAMERA,,,,,,RUBBER,PROPERTY,long,resources/sound/trials/audio_stim_human0.mp3,60fd5c60c1089aa7131fa0ed,19,Female,Right handed,2021-07-26_21h32.56.939,MA Experiment 2,2021.1.2,Linux x86_64,59.97720866,2,17,85,29,1,,,,,
1.3763,response_2,shortFoil,MISTRESS,TANGERINE,,,,,,WHISTLE,TREASURER,long,resources/sound/trials/audio_stim_comp12.mp3,60fd5c60c1089aa7131fa0ed,19,Female,Right handed,2021-07-26_21h32.56.939,MA Experiment 2,2021.1.2,Linux x86_64,59.97720866,2,18,86,20,1,,,,,
1.5416,response_2,,MOONLIGHT,ALCOHOL,,,,,,JOURNAL,ROBBERY,short,resources/sound/catchTrials/audio_control_human_project02.mp3,60fd5c60c1089aa7131fa0ed,19,Female,Right handed,2021-07-26_21h32.56.939,MA Experiment 2,2021.1.2,Linux x86_64,59.97720866,,,,,,0,2,2,13,1
2.0578,response_1,longFoil,CEREAL,MINISTER,,,,,,DRIZZLE,CARDINAL,long,resources/sound/trials/audio_stim_comp69.mp3,60fd5c60c1089aa7131fa0ed,19,Female,Right handed,2021-07-26_21h32.56.939,MA Experiment 2,2021.1.2,Linux x86_64,59.97720866,2,19,87,17,1,,,,,
0.5883,response_1,longValid,STOCKING,HURRICANE,,,,,,BRAINSTORM,GREEN NEEDLE,short,resources/sound/trials/audio_stim_original.mp3,60fd5c60c1089aa7131fa0ed,19,Female,Right handed,2021-07-26_21h32.56.939,MA Experiment 2,2021.1.2,Linux x86_64,59.97720866,2,20,88,16,1,,,,,
1.3262,response_1,shortValid,RUSTY,INSTRUCTOR,,,,,,ROBBER,RATTLESNAKE,short,resources/sound/trials/audio_stim_human64.mp3,60fd5c60c1089aa7131fa0ed,19,Female,Right handed,2021-07-26_21h32.56.939,MA Experiment 2,2021.1.2,Linux x86_64,59.97720866,2,21,89,15,1,,,,,
0.6249,response_2,longValid,PIPING,INFECTION,,,,,,DAYLIGHT,MATERIAL,long,resources/sound/trials/audio_stim_human42.mp3,60fd5c60c1089aa7131fa0ed,19,Female,Right handed,2021-07-26_21h32.56.939,MA Experiment 2,2021.1.2,Linux x86_64,59.97720866,2,22,90,26,1,,,,,
1.3072,response_1,,MORNING,MONUMENT,,,,,,VIOLET,LUBRICANT,short,resources/sound/catchTrials/audio_control_human_project07.mp3,60fd5c60c1089aa7131fa0ed,19,Female,Right handed,2021-07-26_21h32.56.939,MA Experiment 2,2021.1.2,Linux x86_64,59.97720866,,,,,,0,26,26,12,1
2.1567,response_1,shortValid,ACRE,ENVELOPE,,,,,,MARBLE,CUSTOMER,long,resources/sound/trials/audio_stim_comp65.mp3,60fd5c60c1089aa7131fa0ed,19,Female,Right handed,2021-07-26_21h32.56.939,MA Experiment 2,2021.1.2,Linux x86_64,59.97720866,2,23,91,21,1,,,,,
2.1718,response_2,longFoil,DIVING,CARNATION,,,,,,ROBBER,RATTLESNAKE,long,resources/sound/trials/audio_stim_human64.mp3,60fd5c60c1089aa7131fa0ed,19,Female,Right handed,2021-07-26_21h32.56.939,MA Experiment 2,2021.1.2,Linux x86_64,59.97720866,2,24,92,32,1,,,,,
0.523,response_2,shortFoil,BERRY,HANDKERCHIEF,,,,,,WORKER,VISITOR,short,resources/sound/trials/audio_stim_comp17.mp3,60fd5c60c1089aa7131fa0ed,19,Female,Right handed,2021-07-26_21h32.56.939,MA Experiment 2,2021.1.2,Linux x86_64,59.97720866,2,25,93,6,1,,,,,
0.5938,response_1,longValid,MURDER,FISHERMAN,,,,,,DRIZZLE,CARDINAL,short,resources/sound/trials/audio_stim_comp69.mp3,60fd5c60c1089aa7131fa0ed,19,Female,Right handed,2021-07-26_21h32.56.939,MA Experiment 2,2021.1.2,Linux x86_64,59.97720866,2,26,94,0,1,,,,,
0.4091,response_2,,FEVER,GORILLA,,,,,,SPINACH,APRICOT,short,resources/sound/catchTrials/audio_control_comp_project18.mp3,60fd5c60c1089aa7131fa0ed,19,Female,Right handed,2021-07-26_21h32.56.939,MA Experiment 2,2021.1.2,Linux x86_64,59.97720866,,,,,,0,9,9,5,1
2.5229,response_2,longFoil,JURY,AMBULANCE,,,,,,WHISTLE,TREASURER,short,resources/sound/trials/audio_stim_comp12.mp3,60fd5c60c1089aa7131fa0ed,19,Female,Right handed,2021-07-26_21h32.56.939,MA Experiment 2,2021.1.2,Linux x86_64,59.97720866,2,27,95,3,1,,,,,
1.239,response_1,shortFoil,PERSON,GRASSHOPPER,,,,,,PARTY,SANCTUARY,long,resources/sound/trials/audio_stim_human50.mp3,60fd5c60c1089aa7131fa0ed,19,Female,Right handed,2021-07-26_21h32.56.939,MA Experiment 2,2021.1.2,Linux x86_64,59.97720866,2,28,96,31,1,,,,,
1.6206,response_1,shortValid,PICTURE,CINNAMON,,,,,,MINER,EMERALD,long,resources/sound/trials/audio_stim_comp6.mp3,60fd5c60c1089aa7131fa0ed,19,Female,Right handed,2021-07-26_21h32.56.939,MA Experiment 2,2021.1.2,Linux x86_64,59.97720866,2,29,97,18,1,,,,,
1.9078,response_2,shortFoil,UNCLE,ATHLETICS,,,,,,HARDWARE,OVERCOAT,short,resources/sound/trials/audio_stim_human35.mp3,60fd5c60c1089aa7131fa0ed,19,Female,Right handed,2021-07-26_21h32.56.939,MA Experiment 2,2021.1.2,Linux x86_64,59.97720866,2,30,98,8,1,,,,,
2.4392,response_2,,SINGER,POTATO,,,,,,JOURNAL,ROBBERY,long,resources/sound/catchTrials/audio_control_human_project02.mp3,60fd5c60c1089aa7131fa0ed,19,Female,Right handed,2021-07-26_21h32.56.939,MA Experiment 2,2021.1.2,Linux x86_64,59.97720866,,,,,,0,23,23,29,1
0.6091,response_1,longFoil,NECKLACE,TEMPERATURE,,,,,,CONCRETE,ENEMY,long,resources/sound/trials/audio_stim_human67.mp3,60fd5c60c1089aa7131fa0ed,19,Female,Right handed,2021-07-26_21h32.56.939,MA Experiment 2,2021.1.2,Linux x86_64,59.97720866,2,31,99,27,1,,,,,
3.1912,response_1,shortValid,BUTTER,GALLERY,,,,,,BRAINSTORM,GREEN NEEDLE,long,resources/sound/trials/audio_stim_original.mp3,60fd5c60c1089aa7131fa0ed,19,Female,Right handed,2021-07-26_21h32.56.939,MA Experiment 2,2021.1.2,Linux x86_64,59.97720866,2,32,100,33,1,,,,,
1.0921,response_2,longValid,VALLEY,CHOCOLATE,,,,,,SACRED,GALAXY,short,resources/sound/trials/audio_stim_comp1.mp3,60fd5c60c1089aa7131fa0ed,19,Female,Right handed,2021-07-26_21h32.56.939,MA Experiment 2,2021.1.2,Linux x86_64,59.97720866,2,33,101,7,1,,,,,
1.8578,response_1,longFoil,KERNEL,ALPHABET,,,,,,PAINTER,VEHICLE,long,resources/sound/trials/audio_stim_human47.mp3,60fd5c60c1089aa7131fa0ed,19,Female,Right handed,2021-07-26_21h32.56.939,MA Experiment 2,2021.1.2,Linux x86_64,59.97720866,3,0,102,28,1,,,,,
1.8675,response_2,shortValid,LEADER,ENAMEL,,,,,,RECEIPT,LIMOUSINE,long,resources/sound/trials/audio_stim_comp40.mp3,60fd5c60c1089aa7131fa0ed,19,Female,Right handed,2021-07-26_21h32.56.939,MA Experiment 2,2021.1.2,Linux x86_64,59.97720866,3,1,103,19,1,,,,,
1.6893,response_2,shortValid,SULPHUR,PHOTOGRAPH,,,,,,RUBBER,PROPERTY,short,resources/sound/trials/audio_stim_human0.mp3,60fd5c60c1089aa7131fa0ed,19,Female,Right handed,2021-07-26_21h32.56.939,MA Experiment 2,2021.1.2,Linux x86_64,59.97720866,3,2,104,12,1,,,,,
0.825,response_1,,HAMMER,MESSENGER,,,,,,VIOLET,LUBRICANT,long,resources/sound/catchTrials/audio_control_human_project07.mp3,60fd5c60c1089aa7131fa0ed,19,Female,Right handed,2021-07-26_21h32.56.939,MA Experiment 2,2021.1.2,Linux x86_64,59.97720866,,,,,,0,14,14,28,1
1.7059,response_2,longFoil,SHEEPSKIN,CONVENTION,,,,,,ATHLETE,IVORY,short,resources/sound/trials/audio_stim_comp57.mp3,60fd5c60c1089aa7131fa0ed,19,Female,Right handed,2021-07-26_21h32.56.939,MA Experiment 2,2021.1.2,Linux x86_64,59.97720866,3,3,105,5,1,,,,,
1.5897,response_1,shortFoil,CAPTAIN,SAXOPHONE,,,,,,MINER,EMERALD,short,resources/sound/trials/audio_stim_human6.mp3,60fd5c60c1089aa7131fa0ed,19,Female,Right handed,2021-07-26_21h32.56.939,MA Experiment 2,2021.1.2,Linux x86_64,59.97720866,3,4,106,13,1,,,,,
0.6603,response_1,longValid,LIQUID,DIAMOND,,,,,,WORKER,VISITOR,long,resources/sound/trials/audio_stim_comp17.mp3,60fd5c60c1089aa7131fa0ed,19,Female,Right handed,2021-07-26_21h32.56.939,MA Experiment 2,2021.1.2,Linux x86_64,59.97720866,3,5,107,23,1,,,,,
0.6395,response_1,shortValid,EVENING,COMMITTEE,,,,,,BRAINSTORM,GREEN NEEDLE,short,resources/sound/trials/audio_stim_original.mp3,60fd5c60c1089aa7131fa0ed,19,Female,Right handed,2021-07-26_21h32.56.939,MA Experiment 2,2021.1.2,Linux x86_64,59.97720866,3,6,108,16,1,,,,,
1.5947,response_2,,SOFA,SETTLEMENT,,,,,,HOBBY,COLONY,short,resources/sound/catchTrials/audio_control_human_project04.mp3,60fd5c60c1089aa7131fa0ed,19,Female,Right handed,2021-07-26_21h32.56.939,MA Experiment 2,2021.1.2,Linux x86_64,59.97720866,,,,,,0,15,15,11,1
1.2236,response_1,longValid,CIGAR,ICICLE,,,,,,WORKER,VISITOR,short,resources/sound/trials/audio_stim_comp17.mp3,60fd5c60c1089aa7131fa0ed,19,Female,Right handed,2021-07-26_21h32.56.939,MA Experiment 2,2021.1.2,Linux x86_64,59.97720866,3,7,109,6,1,,,,,
2.0595,response_1,longValid,EARTHWORM,VINEGAR,,,,,,MARBLE,CUSTOMER,short,resources/sound/trials/audio_stim_comp65.mp3,60fd5c60c1089aa7131fa0ed,19,Female,Right handed,2021-07-26_21h32.56.939,MA Experiment 2,2021.1.2,Linux x86_64,59.97720866,3,8,110,4,1,,,,,
2.1333,response_1,shortValid,LOBSTER,NEWSPAPER,,,,,,ATHLETE,IVORY,long,resources/sound/trials/audio_stim_comp57.mp3,60fd5c60c1089aa7131fa0ed,19,Female,Right handed,2021-07-26_21h32.56.939,MA Experiment 2,2021.1.2,Linux x86_64,59.97720866,3,9,111,22,1,,,,,
1.0428,response_2,longFoil,SADDLE,CABINET,,,,,,PARTY,SANCTUARY,short,resources/sound/trials/audio_stim_human50.mp3,60fd5c60c1089aa7131fa0ed,19,Female,Right handed,2021-07-26_21h32.56.939,MA Experiment 2,2021.1.2,Linux x86_64,59.97720866,3,10,112,14,1,,,,,
1.5558,response_2,,TUMBLE,CORRIDOR,,,,,,NAVY,RECTANGLE,long,resources/sound/catchTrials/audio_control_comp_project06.mp3,60fd5c60c1089aa7131fa0ed,19,Female,Right handed,2021-07-26_21h32.56.939,MA Experiment 2,2021.1.2,Linux x86_64,59.97720866,,,,,,0,21,21,22,1
1.4081,response_2,longValid,DIAL,UMBRELLA,,,,,,HARDWARE,OVERCOAT,short,resources/sound/trials/audio_stim_human35.mp3,60fd5c60c1089aa7131fa0ed,19,Female,Right handed,2021-07-26_21h32.56.939,MA Experiment 2,2021.1.2,Linux x86_64,59.97720866,3,11,113,8,1,,,,,
0.9567,response_2,shortValid,MURAL,BUTTERFLY,,,,,,SACRED,GALAXY,short,resources/sound/trials/audio_stim_comp1.mp3,60fd5c60c1089aa7131fa0ed,19,Female,Right handed,2021-07-26_21h32.56.939,MA Experiment 2,2021.1.2,Linux x86_64,59.97720866,3,12,114,7,1,,,,,
1.9752,response_1,shortValid,DECOY,REFEREE,,,,,,ROBBER,RATTLESNAKE,long,resources/sound/trials/audio_stim_human64.mp3,60fd5c60c1089aa7131fa0ed,19,Female,Right handed,2021-07-26_21h32.56.939,MA Experiment 2,2021.1.2,Linux x86_64,59.97720866,3,13,115,32,1,,,,,
1.7896,response_2,longValid,TORTURE,JANITOR,,,,,,HARDWARE,OVERCOAT,long,resources/sound/trials/audio_stim_human35.mp3,60fd5c60c1089aa7131fa0ed,19,Female,Right handed,2021-07-26_21h32.56.939,MA Experiment 2,2021.1.2,Linux x86_64,59.97720866,3,14,116,25,1,,,,,
1.6721,response_2,,NEIGHBOUR,ANTIQUE,,,,,,IRIS,VIOLIN,short,resources/sound/catchTrials/audio_control_human_project12.mp3,60fd5c60c1089aa7131fa0ed,19,Female,Right handed,2021-07-26_21h32.56.939,MA Experiment 2,2021.1.2,Linux x86_64,59.97720866,,,,,,0,3,3,8,1
1.9393,response_2,longValid,DOORWAY,AMMONIA,,,,,,DAYLIGHT,MATERIAL,short,resources/sound/trials/audio_stim_human42.mp3,60fd5c60c1089aa7131fa0ed,19,Female,Right handed,2021-07-26_21h32.56.939,MA Experiment 2,2021.1.2,Linux x86_64,59.97720866,3,15,117,9,1,,,,,
1.6062,response_2,longValid,INVOICE,STRAWBERRY,,,,,,PARTY,SANCTUARY,long,resources/sound/trials/audio_stim_human50.mp3,60fd5c60c1089aa7131fa0ed,19,Female,Right handed,2021-07-26_21h32.56.939,MA Experiment 2,2021.1.2,Linux x86_64,59.97720866,3,16,118,31,1,,,,,
1.1403,response_1,longValid,POLO,PROPELLER,,,,,,ROBBER,RATTLESNAKE,short,resources/sound/trials/audio_stim_human64.mp3,60fd5c60c1089aa7131fa0ed,19,Female,Right handed,2021-07-26_21h32.56.939,MA Experiment 2,2021.1.2,Linux x86_64,59.97720866,3,17,119,15,1,,,,,
1.0219,response_1,longFoil,FATHER,MICROSCOPE,,,,,,DAYLIGHT,MATERIAL,long,resources/sound/trials/audio_stim_human42.mp3,60fd5c60c1089aa7131fa0ed,19,Female,Right handed,2021-07-26_21h32.56.939,MA Experiment 2,2021.1.2,Linux x86_64,59.97720866,3,18,120,26,1,,,,,
0.4232,response_1,,INCOME,CIGARETTE,,,,,,JUGGLER,DANDELION,short,resources/sound/catchTrials/audio_control_human_project09.mp3,60fd5c60c1089aa7131fa0ed,19,Female,Right handed,2021-07-26_21h32.56.939,MA Experiment 2,2021.1.2,Linux x86_64,59.97720866,,,,,,0,27,27,15,1
1.5246,response_1,shortFoil,VAPOUR,PROFESSOR,,,,,,MINER,EMERALD,long,resources/sound/trials/audio_stim_comp6.mp3,60fd5c60c1089aa7131fa0ed,19,Female,Right handed,2021-07-26_21h32.56.939,MA Experiment 2,2021.1.2,Linux x86_64,59.97720866,3,19,121,18,1,,,,,
0.5094,response_1,shortFoil,RABBI,GOVERNMENT,,,,,,MARBLE,CUSTOMER,long,resources/sound/trials/audio_stim_comp65.mp3,60fd5c60c1089aa7131fa0ed,19,Female,Right handed,2021-07-26_21h32.56.939,MA Experiment 2,2021.1.2,Linux x86_64,59.97720866,3,20,122,21,1,,,,,
1.8691,response_1,shortFoil,HARBOUR,SPECIALIST,,,,,,DRIZZLE,CARDINAL,long,resources/sound/trials/audio_stim_comp69.mp3,60fd5c60c1089aa7131fa0ed,19,Female,Right handed,2021-07-26_21h32.56.939,MA Experiment 2,2021.1.2,Linux x86_64,59.97720866,3,21,123,17,1,,,,,
1.4911,response_2,longFoil,KENNEL,INJURY,,,,,,MINER,EMERALD,long,resources/sound/trials/audio_stim_human6.mp3,60fd5c60c1089aa7131fa0ed,19,Female,Right handed,2021-07-26_21h32.56.939,MA Experiment 2,2021.1.2,Linux x86_64,59.97720866,3,22,124,30,1,,,,,
1.3408,response_2,,VESSEL,HEADQUARTERS,,,,,,NAVY,RECTANGLE,long,resources/sound/catchTrials/audio_control_human_project06.mp3,60fd5c60c1089aa7131fa0ed,19,Female,Right handed,2021-07-26_21h32.56.939,MA Experiment 2,2021.1.2,Linux x86_64,59.97720866,,,,,,0,5,5,30,1
1.6412,response_1,shortFoil,ANCHOR,ADMIRAL,,,,,,MINER,EMERALD,short,resources/sound/trials/audio_stim_comp6.mp3,60fd5c60c1089aa7131fa0ed,19,Female,Right handed,2021-07-26_21h32.56.939,MA Experiment 2,2021.1.2,Linux x86_64,59.97720866,3,23,125,1,1,,,,,
1.7409,response_2,shortValid,OLIVE,CATHEDRAL,,,,,,WHISTLE,TREASURER,short,resources/sound/trials/audio_stim_comp12.mp3,60fd5c60c1089aa7131fa0ed,19,Female,Right handed,2021-07-26_21h32.56.939,MA Experiment 2,2021.1.2,Linux x86_64,59.97720866,3,24,126,3,1,,,,,
1.5397,response_2,shortValid,TRAITOR,GYMNASTICS,,,,,,RECEIPT,LIMOUSINE,short,resources/sound/trials/audio_stim_comp40.mp3,60fd5c60c1089aa7131fa0ed,19,Female,Right handed,2021-07-26_21h32.56.939,MA Experiment 2,2021.1.2,Linux x86_64,59.97720866,3,25,127,2,1,,,,,
2.1902,response_2,longValid,BISHOP,MECHANIC,,,,,,RUBBER,PROPERTY,long,resources/sound/trials/audio_stim_human0.mp3,60fd5c60c1089aa7131fa0ed,19,Female,Right handed,2021-07-26_21h32.56.939,MA Experiment 2,2021.1.2,Linux x86_64,59.97720866,3,26,128,29,1,,,,,
2.5714,response_2,,VILLAGE,LEMONADE,,,,,,IRIS,VIOLIN,long,resources/sound/catchTrials/audio_control_comp_project12.mp3,60fd5c60c1089aa7131fa0ed,19,Female,Right handed,2021-07-26_21h32.56.939,MA Experiment 2,2021.1.2,Linux x86_64,59.97720866,,,,,,0,19,19,20,1
0.6578,response_2,shortValid,DANCER,DESTROYER,,,,,,SACRED,GALAXY,long,resources/sound/trials/audio_stim_comp1.mp3,60fd5c60c1089aa7131fa0ed,19,Female,Right handed,2021-07-26_21h32.56.939,MA Experiment 2,2021.1.2,Linux x86_64,59.97720866,3,27,129,24,1,,,,,
0.8094,response_2,longFoil,HURDLE,CITIZEN,,,,,,WHISTLE,TREASURER,long,resources/sound/trials/audio_stim_comp12.mp3,60fd5c60c1089aa7131fa0ed,19,Female,Right handed,2021-07-26_21h32.56.939,MA Experiment 2,2021.1.2,Linux x86_64,59.97720866,3,28,130,20,1,,,,,
0.5389,response_1,longValid,NOVEL,MEDICINE,,,,,,BRAINSTORM,GREEN NEEDLE,long,resources/sound/trials/audio_stim_original.mp3,60fd5c60c1089aa7131fa0ed,19,Female,Right handed,2021-07-26_21h32.56.939,MA Experiment 2,2021.1.2,Linux x86_64,59.97720866,3,29,131,33,1,,,,,
0.8394,response_2,shortValid,DUEL,ATTENDANT,,,,,,CONCRETE,ENEMY,long,resources/sound/trials/audio_stim_human67.mp3,60fd5c60c1089aa7131fa0ed,19,Female,Right handed,2021-07-26_21h32.56.939,MA Experiment 2,2021.1.2,Linux x86_64,59.97720866,3,30,132,27,1,,,,,
1.4922,response_2,,NATIVE,ACROBAT,,,,,,CORNER,ENGINEER,long,resources/sound/catchTrials/audio_control_comp_project14.mp3,60fd5c60c1089aa7131fa0ed,19,Female,Right handed,2021-07-26_21h32.56.939,MA Experiment 2,2021.1.2,Linux x86_64,59.97720866,,,,,,0,30,30,17,1
0.7916,response_1,longFoil,FOREARM,ASBESTOS,,,,,,PAINTER,VEHICLE,short,resources/sound/trials/audio_stim_human47.mp3,60fd5c60c1089aa7131fa0ed,19,Female,Right handed,2021-07-26_21h32.56.939,MA Experiment 2,2021.1.2,Linux x86_64,59.97720866,3,31,133,11,1,,,,,
1.8101,response_1,shortFoil,PRINCESS,APPLIANCE,,,,,,DRIZZLE,CARDINAL,short,resources/sound/trials/audio_stim_comp69.mp3,60fd5c60c1089aa7131fa0ed,19,Female,Right handed,2021-07-26_21h32.56.939,MA Experiment 2,2021.1.2,Linux x86_64,59.97720866,3,32,134,0,1,,,,,
1.2753,response_2,shortFoil,WRITING,DISSECTION,,,,,,CONCRETE,ENEMY,short,resources/sound/trials/audio_stim_human67.mp3,60fd5c60c1089aa7131fa0ed,19,Female,Right handed,2021-07-26_21h32.56.939,MA Experiment 2,2021.1.2,Linux x86_64,59.97720866,3,33,135,10,1,,,,,
