response.time,response,cueTarget,rand_foil_1,rand_foil_2,prac_trials.thisRepN,prac_trials.thisTrialN,prac_trials.thisN,prac_trials.thisIndex,prac_trials.ran,word_1,word_2,cue,file_path,participant,age,gender,handedness,date,expName,psychopyVersion,OS,frameRate,trials.thisRepN,trials.thisTrialN,trials.thisN,trials.thisIndex,trials.ran,catchTrials.thisRepN,catchTrials.thisTrialN,catchTrials.thisN,catchTrials.thisIndex,catchTrials.ran
2.131,response_2,longValid,DOORWAY,PROFESSOR,0,0,0,5,1,NONSENSE,OASIS,short,resources/sound/prac_trials/practice_cue_human5.mp3,60fd9ace796a297c6358e5ef,19,Female,Right handed,2021-07-26_21h02.33.304,MA Experiment 2,2021.1.2,MacIntel,62.5,,,,,,,,,,
,,longValid,BEETLE,INSTRUMENT,0,1,1,1,1,CABLE,REPUBLIC,short,resources/sound/prac_trials/practice_cue_human1.mp3,60fd9ace796a297c6358e5ef,19,Female,Right handed,2021-07-26_21h02.33.304,MA Experiment 2,2021.1.2,MacIntel,62.5,,,,,,,,,,
1.431,response_2,shortFoil,BUTTER,MONUMENT,0,2,2,0,1,AARDVARK,FALLACY,short,resources/sound/prac_trials/practice_cue0.mp3,60fd9ace796a297c6358e5ef,19,Female,Right handed,2021-07-26_21h02.33.304,MA Experiment 2,2021.1.2,MacIntel,62.5,,,,,,,,,,
1.21,response_2,longFoil,CANTEEN,HURRICANE,0,3,3,9,1,GRUMPY,LABYRINTH,long,resources/sound/prac_trials/practice_cue_human9.mp3,60fd9ace796a297c6358e5ef,19,Female,Right handed,2021-07-26_21h02.33.304,MA Experiment 2,2021.1.2,MacIntel,62.5,,,,,,,,,,
1.142,response_2,shortValid,NURSERY,CITIZEN,0,4,4,7,1,BUCKLE,WALLABY,long,resources/sound/prac_trials/practice_cue_human7.mp3,60fd9ace796a297c6358e5ef,19,Female,Right handed,2021-07-26_21h02.33.304,MA Experiment 2,2021.1.2,MacIntel,62.5,,,,,,,,,,
1.544,response_2,shortFoil,EARTHWORM,CAPITAL,0,5,5,2,1,RECENT,TOBACCO,short,resources/sound/prac_trials/practice_cue2.mp3,60fd9ace796a297c6358e5ef,19,Female,Right handed,2021-07-26_21h02.33.304,MA Experiment 2,2021.1.2,MacIntel,62.5,,,,,,,,,,
2.071,response_2,shortFoil,MISTRESS,INSTITUTE,0,6,6,3,1,EAGER,QUALIFY,short,resources/sound/prac_trials/practice_cue_human3.mp3,60fd9ace796a297c6358e5ef,19,Female,Right handed,2021-07-26_21h02.33.304,MA Experiment 2,2021.1.2,MacIntel,62.5,,,,,,,,,,
0.896,response_1,longValid,PERSON,MEDICINE,0,7,7,10,1,SAFFRON,JAVELIN,long,resources/sound/prac_trials/practice_cue10.mp3,60fd9ace796a297c6358e5ef,19,Female,Right handed,2021-07-26_21h02.33.304,MA Experiment 2,2021.1.2,MacIntel,62.5,,,,,,,,,,
1.743,response_2,longFoil,FATHER,MOLECULE,0,8,8,8,1,DAGGER,EMPHASIS,long,resources/sound/prac_trials/practice_cue8.mp3,60fd9ace796a297c6358e5ef,19,Female,Right handed,2021-07-26_21h02.33.304,MA Experiment 2,2021.1.2,MacIntel,62.5,,,,,,,,,,
0.828,response_2,longValid,WRITING,INTERVIEW,0,9,9,6,1,VACANT,SALVATION,long,resources/sound/prac_trials/practice_cue6.mp3,60fd9ace796a297c6358e5ef,19,Female,Right handed,2021-07-26_21h02.33.304,MA Experiment 2,2021.1.2,MacIntel,62.5,,,,,,,,,,
1.511,response_2,shortValid,RUSTY,TANGERINE,0,10,10,4,1,FIZZY,ELECTRIC,short,resources/sound/prac_trials/practice_cue4.mp3,60fd9ace796a297c6358e5ef,19,Female,Right handed,2021-07-26_21h02.33.304,MA Experiment 2,2021.1.2,MacIntel,62.5,,,,,,,,,,
1.862,response_2,shortFoil,LEADER,MICROSCOPE,0,11,11,11,1,KETCHUP,GONDOLA,long,resources/sound/prac_trials/practice_cue_human11.mp3,60fd9ace796a297c6358e5ef,19,Female,Right handed,2021-07-26_21h02.33.304,MA Experiment 2,2021.1.2,MacIntel,62.5,,,,,,,,,,
1.443,response_1,shortValid,SHOULDER,DISSECTION,,,,,,PARTY,SANCTUARY,short,resources/sound/trials/audio_stim_human50.mp3,60fd9ace796a297c6358e5ef,19,Female,Right handed,2021-07-26_21h02.33.304,MA Experiment 2,2021.1.2,MacIntel,62.5,0,0,0,14,1,,,,,
1.13,response_1,longValid,BERRY,ENVELOPE,,,,,,DRIZZLE,CARDINAL,long,resources/sound/trials/audio_stim_comp69.mp3,60fd9ace796a297c6358e5ef,19,Female,Right handed,2021-07-26_21h02.33.304,MA Experiment 2,2021.1.2,MacIntel,62.5,0,1,1,17,1,,,,,
1.064,response_1,shortValid,HAMMER,CATHEDRAL,,,,,,MARBLE,CUSTOMER,long,resources/sound/trials/audio_stim_comp65.mp3,60fd9ace796a297c6358e5ef,19,Female,Right handed,2021-07-26_21h02.33.304,MA Experiment 2,2021.1.2,MacIntel,62.5,0,2,2,21,1,,,,,
1.611,response_1,,BURNER,ASBESTOS,,,,,,POISON,REVOLVER,short,resources/sound/catchTrials/audio_control_human_project01.mp3,60fd9ace796a297c6358e5ef,19,Female,Right handed,2021-07-26_21h02.33.304,MA Experiment 2,2021.1.2,MacIntel,62.5,,,,,,0,28,28,9,1
1.327,response_1,shortValid,GRADUATE,GOVERNMENT,,,,,,PAINTER,VEHICLE,long,resources/sound/trials/audio_stim_human47.mp3,60fd9ace796a297c6358e5ef,19,Female,Right handed,2021-07-26_21h02.33.304,MA Experiment 2,2021.1.2,MacIntel,62.5,0,3,3,28,1,,,,,
2.23,response_1,shortFoil,SEGMENT,HOSPITAL,,,,,,MINER,EMERALD,short,resources/sound/trials/audio_stim_comp6.mp3,60fd9ace796a297c6358e5ef,19,Female,Right handed,2021-07-26_21h02.33.304,MA Experiment 2,2021.1.2,MacIntel,62.5,0,4,4,1,1,,,,,
1.027,response_2,longFoil,DIVING,GALLERY,,,,,,ROBBER,RATTLESNAKE,long,resources/sound/trials/audio_stim_human64.mp3,60fd9ace796a297c6358e5ef,19,Female,Right handed,2021-07-26_21h02.33.304,MA Experiment 2,2021.1.2,MacIntel,62.5,0,5,5,32,1,,,,,
1.259,response_1,shortValid,DECOY,FURNITURE,,,,,,DRIZZLE,CARDINAL,short,resources/sound/trials/audio_stim_comp69.mp3,60fd9ace796a297c6358e5ef,19,Female,Right handed,2021-07-26_21h02.33.304,MA Experiment 2,2021.1.2,MacIntel,62.5,0,6,6,0,1,,,,,
1.109,response_2,,TRAITOR,DESTROYER,,,,,,NAVY,RECTANGLE,short,resources/sound/catchTrials/audio_control_human_project06.mp3,60fd9ace796a297c6358e5ef,19,Female,Right handed,2021-07-26_21h02.33.304,MA Experiment 2,2021.1.2,MacIntel,62.5,,,,,,0,25,25,14,1
1.327,response_2,shortFoil,FERTILE,OXYGEN,,,,,,WORKER,VISITOR,short,resources/sound/trials/audio_stim_comp17.mp3,60fd9ace796a297c6358e5ef,19,Female,Right handed,2021-07-26_21h02.33.304,MA Experiment 2,2021.1.2,MacIntel,62.5,0,7,7,6,1,,,,,
1.179,response_1,longValid,MEASLES,NEWSPAPER,,,,,,CONCRETE,ENEMY,long,resources/sound/trials/audio_stim_human67.mp3,60fd9ace796a297c6358e5ef,19,Female,Right handed,2021-07-26_21h02.33.304,MA Experiment 2,2021.1.2,MacIntel,62.5,0,8,8,27,1,,,,,
1.961,response_1,longValid,WIRE,NEIGHBOURHOOD,,,,,,DAYLIGHT,MATERIAL,short,resources/sound/trials/audio_stim_human42.mp3,60fd9ace796a297c6358e5ef,19,Female,Right handed,2021-07-26_21h02.33.304,MA Experiment 2,2021.1.2,MacIntel,62.5,0,9,9,9,1,,,,,
1.246,response_1,shortValid,SODA,PROPELLER,,,,,,RUBBER,PROPERTY,long,resources/sound/trials/audio_stim_human0.mp3,60fd9ace796a297c6358e5ef,19,Female,Right handed,2021-07-26_21h02.33.304,MA Experiment 2,2021.1.2,MacIntel,62.5,0,10,10,29,1,,,,,
1.426,response_1,,LOBSTER,ENAMEL,,,,,,JUGGLER,DANDELION,short,resources/sound/catchTrials/audio_control_human_project09.mp3,60fd9ace796a297c6358e5ef,19,Female,Right handed,2021-07-26_21h02.33.304,MA Experiment 2,2021.1.2,MacIntel,62.5,,,,,,0,9,9,15,1
1.611,response_2,longValid,MURAL,MERCURY,,,,,,SACRED,GALAXY,long,resources/sound/trials/audio_stim_comp1.mp3,60fd9ace796a297c6358e5ef,19,Female,Right handed,2021-07-26_21h02.33.304,MA Experiment 2,2021.1.2,MacIntel,62.5,0,11,11,24,1,,,,,
1.06,response_1,longValid,SOFA,OPENING,,,,,,WHISTLE,TREASURER,short,resources/sound/trials/audio_stim_comp12.mp3,60fd9ace796a297c6358e5ef,19,Female,Right handed,2021-07-26_21h02.33.304,MA Experiment 2,2021.1.2,MacIntel,62.5,0,12,12,3,1,,,,,
1.178,response_2,shortValid,POLO,POLICEMAN,,,,,,WORKER,VISITOR,long,resources/sound/trials/audio_stim_comp17.mp3,60fd9ace796a297c6358e5ef,19,Female,Right handed,2021-07-26_21h02.33.304,MA Experiment 2,2021.1.2,MacIntel,62.5,0,13,13,23,1,,,,,
0.492,response_1,longValid,MOONLIGHT,INFECTION,,,,,,ATHLETE,IVORY,short,resources/sound/trials/audio_stim_comp57.mp3,60fd9ace796a297c6358e5ef,19,Female,Right handed,2021-07-26_21h02.33.304,MA Experiment 2,2021.1.2,MacIntel,62.5,0,14,14,5,1,,,,,
1.106,response_2,,DANCER,CORRIDOR,,,,,,BORDER,ALGEBRA,long,resources/sound/catchTrials/audio_control_comp_project00.mp3,60fd9ace796a297c6358e5ef,19,Female,Right handed,2021-07-26_21h02.33.304,MA Experiment 2,2021.1.2,MacIntel,62.5,,,,,,0,30,30,16,1
1.778,response_1,longFoil,WINDOW,BUTTERFLY,,,,,,RECEIPT,LIMOUSINE,short,resources/sound/trials/audio_stim_comp40.mp3,60fd9ace796a297c6358e5ef,19,Female,Right handed,2021-07-26_21h02.33.304,MA Experiment 2,2021.1.2,MacIntel,62.5,0,15,15,2,1,,,,,
1.712,response_1,longFoil,SHEEPSKIN,CINNAMON,,,,,,BRAINSTORM,GREEN NEEDLE,short,resources/sound/trials/audio_stim_original.mp3,60fd9ace796a297c6358e5ef,19,Female,Right handed,2021-07-26_21h02.33.304,MA Experiment 2,2021.1.2,MacIntel,62.5,0,16,16,16,1,,,,,
1.143,response_1,shortValid,KERNEL,CLARINET,,,,,,HARDWARE,OVERCOAT,long,resources/sound/trials/audio_stim_human35.mp3,60fd9ace796a297c6358e5ef,19,Female,Right handed,2021-07-26_21h02.33.304,MA Experiment 2,2021.1.2,MacIntel,62.5,0,17,17,25,1,,,,,
0.975,response_1,longValid,RABBI,CARNATION,,,,,,CONCRETE,ENEMY,short,resources/sound/trials/audio_stim_human67.mp3,60fd9ace796a297c6358e5ef,19,Female,Right handed,2021-07-26_21h02.33.304,MA Experiment 2,2021.1.2,MacIntel,62.5,0,18,18,10,1,,,,,
1.311,response_2,,JURY,ICICLE,,,,,,HOBBY,COLONY,short,resources/sound/catchTrials/audio_control_human_project04.mp3,60fd9ace796a297c6358e5ef,19,Female,Right handed,2021-07-26_21h02.33.304,MA Experiment 2,2021.1.2,MacIntel,62.5,,,,,,0,11,11,11,1
0.759,response_2,shortFoil,FEVER,TEMPERATURE,,,,,,MINER,EMERALD,long,resources/sound/trials/audio_stim_comp6.mp3,60fd9ace796a297c6358e5ef,19,Female,Right handed,2021-07-26_21h02.33.304,MA Experiment 2,2021.1.2,MacIntel,62.5,0,19,19,18,1,,,,,
1.142,response_1,longValid,SINGER,MINERAL,,,,,,ATHLETE,IVORY,long,resources/sound/trials/audio_stim_comp57.mp3,60fd9ace796a297c6358e5ef,19,Female,Right handed,2021-07-26_21h02.33.304,MA Experiment 2,2021.1.2,MacIntel,62.5,0,20,20,22,1,,,,,
1.224,response_2,longValid,NAPKIN,GORILLA,,,,,,ROBBER,RATTLESNAKE,short,resources/sound/trials/audio_stim_human64.mp3,60fd9ace796a297c6358e5ef,19,Female,Right handed,2021-07-26_21h02.33.304,MA Experiment 2,2021.1.2,MacIntel,62.5,0,21,21,15,1,,,,,
0.922,response_1,shortFoil,KETTLE,CANDLELIGHT,,,,,,HARDWARE,OVERCOAT,short,resources/sound/trials/audio_stim_human35.mp3,60fd9ace796a297c6358e5ef,19,Female,Right handed,2021-07-26_21h02.33.304,MA Experiment 2,2021.1.2,MacIntel,62.5,0,22,22,8,1,,,,,
1.545,response_2,,INVOICE,ATHLETICS,,,,,,NAVY,RECTANGLE,short,resources/sound/catchTrials/audio_control_comp_project06.mp3,60fd9ace796a297c6358e5ef,19,Female,Right handed,2021-07-26_21h02.33.304,MA Experiment 2,2021.1.2,MacIntel,62.5,,,,,,0,0,0,6,1
1.078,response_1,longValid,SULPHUR,CABINET,,,,,,DAYLIGHT,MATERIAL,long,resources/sound/trials/audio_stim_human42.mp3,60fd9ace796a297c6358e5ef,19,Female,Right handed,2021-07-26_21h02.33.304,MA Experiment 2,2021.1.2,MacIntel,62.5,0,23,23,26,1,,,,,
1.645,response_2,longFoil,DWELLER,VINEGAR,,,,,,MINER,EMERALD,long,resources/sound/trials/audio_stim_human6.mp3,60fd9ace796a297c6358e5ef,19,Female,Right handed,2021-07-26_21h02.33.304,MA Experiment 2,2021.1.2,MacIntel,62.5,0,24,24,30,1,,,,,
1.311,response_2,shortFoil,PODIUM,MESSENGER,,,,,,MINER,EMERALD,short,resources/sound/trials/audio_stim_human6.mp3,60fd9ace796a297c6358e5ef,19,Female,Right handed,2021-07-26_21h02.33.304,MA Experiment 2,2021.1.2,MacIntel,62.5,0,25,25,13,1,,,,,
2.162,response_1,shortValid,WALRUS,MOSQUITO,,,,,,RECEIPT,LIMOUSINE,long,resources/sound/trials/audio_stim_comp40.mp3,60fd9ace796a297c6358e5ef,19,Female,Right handed,2021-07-26_21h02.33.304,MA Experiment 2,2021.1.2,MacIntel,62.5,0,26,26,19,1,,,,,
1.295,response_2,,PRINCESS,STRAWBERRY,,,,,,CORNER,ENGINEER,long,resources/sound/catchTrials/audio_control_human_project14.mp3,60fd9ace796a297c6358e5ef,19,Female,Right handed,2021-07-26_21h02.33.304,MA Experiment 2,2021.1.2,MacIntel,62.5,,,,,,0,22,22,26,1
1.311,response_2,shortFoil,BISHOP,GRASSHOPPER,,,,,,PARTY,SANCTUARY,long,resources/sound/trials/audio_stim_human50.mp3,60fd9ace796a297c6358e5ef,19,Female,Right handed,2021-07-26_21h02.33.304,MA Experiment 2,2021.1.2,MacIntel,62.5,0,27,27,31,1,,,,,
1.845,response_2,shortValid,KENNEL,RETAILER,,,,,,RUBBER,PROPERTY,short,resources/sound/trials/audio_stim_human0.mp3,60fd9ace796a297c6358e5ef,19,Female,Right handed,2021-07-26_21h02.33.304,MA Experiment 2,2021.1.2,MacIntel,62.5,0,28,28,12,1,,,,,
1.777,response_2,longValid,PATIENT,ABDOMEN,,,,,,BRAINSTORM,GREEN NEEDLE,long,resources/sound/trials/audio_stim_original.mp3,60fd9ace796a297c6358e5ef,19,Female,Right handed,2021-07-26_21h02.33.304,MA Experiment 2,2021.1.2,MacIntel,62.5,0,29,29,33,1,,,,,
1.111,response_2,shortFoil,CABIN,PHOTOGRAPH,,,,,,PAINTER,VEHICLE,short,resources/sound/trials/audio_stim_human47.mp3,60fd9ace796a297c6358e5ef,19,Female,Right handed,2021-07-26_21h02.33.304,MA Experiment 2,2021.1.2,MacIntel,62.5,0,30,30,11,1,,,,,
1.007,response_2,,NECKLACE,ACROBAT,,,,,,IRIS,VIOLIN,short,resources/sound/catchTrials/audio_control_comp_project12.mp3,60fd9ace796a297c6358e5ef,19,Female,Right handed,2021-07-26_21h02.33.304,MA Experiment 2,2021.1.2,MacIntel,62.5,,,,,,0,7,7,4,1
1.196,response_1,longFoil,CIGAR,CAMERA,,,,,,MARBLE,CUSTOMER,short,resources/sound/trials/audio_stim_comp65.mp3,60fd9ace796a297c6358e5ef,19,Female,Right handed,2021-07-26_21h02.33.304,MA Experiment 2,2021.1.2,MacIntel,62.5,0,31,31,4,1,,,,,
0.861,response_1,shortValid,HAMSTER,CROCODILE,,,,,,SACRED,GALAXY,short,resources/sound/trials/audio_stim_comp1.mp3,60fd9ace796a297c6358e5ef,19,Female,Right handed,2021-07-26_21h02.33.304,MA Experiment 2,2021.1.2,MacIntel,62.5,0,32,32,7,1,,,,,
1.007,response_2,longValid,OFFICE,DIAMOND,,,,,,WHISTLE,TREASURER,long,resources/sound/trials/audio_stim_comp12.mp3,60fd9ace796a297c6358e5ef,19,Female,Right handed,2021-07-26_21h02.33.304,MA Experiment 2,2021.1.2,MacIntel,62.5,0,33,33,20,1,,,,,
1.578,response_1,shortFoil,TWEEZER,AMBULANCE,,,,,,RECEIPT,LIMOUSINE,short,resources/sound/trials/audio_stim_comp40.mp3,60fd9ace796a297c6358e5ef,19,Female,Right handed,2021-07-26_21h02.33.304,MA Experiment 2,2021.1.2,MacIntel,62.5,1,0,34,2,1,,,,,
1.279,response_2,longValid,DUEL,ANTIQUE,,,,,,MINER,EMERALD,short,resources/sound/trials/audio_stim_human6.mp3,60fd9ace796a297c6358e5ef,19,Female,Right handed,2021-07-26_21h02.33.304,MA Experiment 2,2021.1.2,MacIntel,62.5,1,1,35,13,1,,,,,
1.013,response_1,longFoil,HURDLE,ALPHABET,,,,,,MINER,EMERALD,long,resources/sound/trials/audio_stim_comp6.mp3,60fd9ace796a297c6358e5ef,19,Female,Right handed,2021-07-26_21h02.33.304,MA Experiment 2,2021.1.2,MacIntel,62.5,1,2,36,18,1,,,,,
1.231,response_2,,PICTURE,UMBRELLA,,,,,,IRIS,VIOLIN,long,resources/sound/catchTrials/audio_control_human_project12.mp3,60fd9ace796a297c6358e5ef,19,Female,Right handed,2021-07-26_21h02.33.304,MA Experiment 2,2021.1.2,MacIntel,62.5,,,,,,0,16,16,24,1
1.624,response_1,shortFoil,VILLAGE,INSTRUCTOR,,,,,,HARDWARE,OVERCOAT,long,resources/sound/trials/audio_stim_human35.mp3,60fd9ace796a297c6358e5ef,19,Female,Right handed,2021-07-26_21h02.33.304,MA Experiment 2,2021.1.2,MacIntel,62.5,1,3,37,25,1,,,,,
1.276,response_2,longValid,MEDICINE,GINGERBREAD,,,,,,MARBLE,CUSTOMER,long,resources/sound/trials/audio_stim_comp65.mp3,60fd9ace796a297c6358e5ef,19,Female,Right handed,2021-07-26_21h02.33.304,MA Experiment 2,2021.1.2,MacIntel,62.5,1,4,38,21,1,,,,,
1.175,response_2,longValid,TEMPLE,FAMILY,,,,,,HARDWARE,OVERCOAT,short,resources/sound/trials/audio_stim_human35.mp3,60fd9ace796a297c6358e5ef,19,Female,Right handed,2021-07-26_21h02.33.304,MA Experiment 2,2021.1.2,MacIntel,62.5,1,5,39,8,1,,,,,
1.694,response_1,shortFoil,OLIVE,MECHANIC,,,,,,BRAINSTORM,GREEN NEEDLE,short,resources/sound/trials/audio_stim_original.mp3,60fd9ace796a297c6358e5ef,19,Female,Right handed,2021-07-26_21h02.33.304,MA Experiment 2,2021.1.2,MacIntel,62.5,1,6,40,16,1,,,,,
1.392,response_2,,UNCLE,ORNAMENT,,,,,,HOBBY,COLONY,long,resources/sound/catchTrials/audio_control_human_project04.mp3,60fd9ace796a297c6358e5ef,19,Female,Right handed,2021-07-26_21h02.33.304,MA Experiment 2,2021.1.2,MacIntel,62.5,,,,,,0,27,27,27,1
0.812,response_1,longFoil,SCOOTER,FIREWOOD,,,,,,RUBBER,PROPERTY,short,resources/sound/trials/audio_stim_human0.mp3,60fd9ace796a297c6358e5ef,19,Female,Right handed,2021-07-26_21h02.33.304,MA Experiment 2,2021.1.2,MacIntel,62.5,1,7,41,12,1,,,,,
0.87,response_2,longValid,NATIVE,SAXOPHONE,,,,,,WORKER,VISITOR,short,resources/sound/trials/audio_stim_comp17.mp3,60fd9ace796a297c6358e5ef,19,Female,Right handed,2021-07-26_21h02.33.304,MA Experiment 2,2021.1.2,MacIntel,62.5,1,8,42,6,1,,,,,
1.09,response_2,shortFoil,NEIGHBOUR,EMULSION,,,,,,SACRED,GALAXY,long,resources/sound/trials/audio_stim_comp1.mp3,60fd9ace796a297c6358e5ef,19,Female,Right handed,2021-07-26_21h02.33.304,MA Experiment 2,2021.1.2,MacIntel,62.5,1,9,43,24,1,,,,,
1.009,response_1,shortFoil,TUMBLE,HEADQUARTERS,,,,,,WHISTLE,TREASURER,long,resources/sound/trials/audio_stim_comp12.mp3,60fd9ace796a297c6358e5ef,19,Female,Right handed,2021-07-26_21h02.33.304,MA Experiment 2,2021.1.2,MacIntel,62.5,1,10,44,20,1,,,,,
1.309,response_2,,DIAL,GYMNASTICS,,,,,,CORNER,ENGINEER,long,resources/sound/catchTrials/audio_control_comp_project14.mp3,60fd9ace796a297c6358e5ef,19,Female,Right handed,2021-07-26_21h02.33.304,MA Experiment 2,2021.1.2,MacIntel,62.5,,,,,,0,17,17,17,1
0.725,response_1,longFoil,STATION,SPECIALIST,,,,,,CONCRETE,ENEMY,short,resources/sound/trials/audio_stim_human67.mp3,60fd9ace796a297c6358e5ef,19,Female,Right handed,2021-07-26_21h02.33.304,MA Experiment 2,2021.1.2,MacIntel,62.5,1,11,45,10,1,,,,,
1.275,response_2,shortFoil,MUSCLE,PHYSICIAN,,,,,,ROBBER,RATTLESNAKE,short,resources/sound/trials/audio_stim_human64.mp3,60fd9ace796a297c6358e5ef,19,Female,Right handed,2021-07-26_21h02.33.304,MA Experiment 2,2021.1.2,MacIntel,62.5,1,12,46,15,1,,,,,
1.226,response_2,shortValid,EVENING,HEROIN,,,,,,PARTY,SANCTUARY,long,resources/sound/trials/audio_stim_human50.mp3,60fd9ace796a297c6358e5ef,19,Female,Right handed,2021-07-26_21h02.33.304,MA Experiment 2,2021.1.2,MacIntel,62.5,1,13,47,31,1,,,,,
0.976,response_2,longValid,CURFEW,CHOCOLATE,,,,,,WORKER,VISITOR,long,resources/sound/trials/audio_stim_comp17.mp3,60fd9ace796a297c6358e5ef,19,Female,Right handed,2021-07-26_21h02.33.304,MA Experiment 2,2021.1.2,MacIntel,62.5,1,14,48,23,1,,,,,
1.141,response_2,,STOCKING,ALCOHOL,,,,,,CORNER,ENGINEER,short,resources/sound/catchTrials/audio_control_human_project14.mp3,60fd9ace796a297c6358e5ef,19,Female,Right handed,2021-07-26_21h02.33.304,MA Experiment 2,2021.1.2,MacIntel,62.5,,,,,,0,29,29,10,1
1.393,response_1,shortFoil,INCOME,HONEYMOON,,,,,,DAYLIGHT,MATERIAL,short,resources/sound/trials/audio_stim_human42.mp3,60fd9ace796a297c6358e5ef,19,Female,Right handed,2021-07-26_21h02.33.304,MA Experiment 2,2021.1.2,MacIntel,62.5,1,15,49,9,1,,,,,
1.526,response_1,shortFoil,VAPOUR,CONVENTION,,,,,,DRIZZLE,CARDINAL,long,resources/sound/trials/audio_stim_comp69.mp3,60fd9ace796a297c6358e5ef,19,Female,Right handed,2021-07-26_21h02.33.304,MA Experiment 2,2021.1.2,MacIntel,62.5,1,16,50,17,1,,,,,
0.794,response_2,longValid,CAPTAIN,FISHERMAN,,,,,,MARBLE,CUSTOMER,short,resources/sound/trials/audio_stim_comp65.mp3,60fd9ace796a297c6358e5ef,19,Female,Right handed,2021-07-26_21h02.33.304,MA Experiment 2,2021.1.2,MacIntel,62.5,1,17,51,4,1,,,,,
2.145,response_1,longFoil,CRYSTAL,ATTENDANT,,,,,,DRIZZLE,CARDINAL,short,resources/sound/trials/audio_stim_comp69.mp3,60fd9ace796a297c6358e5ef,19,Female,Right handed,2021-07-26_21h02.33.304,MA Experiment 2,2021.1.2,MacIntel,62.5,1,18,52,0,1,,,,,
1.141,response_1,,LIGHTNING,INDUSTRY,,,,,,POISON,REVOLVER,long,resources/sound/catchTrials/audio_control_human_project01.mp3,60fd9ace796a297c6358e5ef,19,Female,Right handed,2021-07-26_21h02.33.304,MA Experiment 2,2021.1.2,MacIntel,62.5,,,,,,0,26,26,25,1
2.393,response_1,longFoil,VESSEL,CIGARETTE,,,,,,PAINTER,VEHICLE,short,resources/sound/trials/audio_stim_human47.mp3,60fd9ace796a297c6358e5ef,19,Female,Right handed,2021-07-26_21h02.33.304,MA Experiment 2,2021.1.2,MacIntel,62.5,1,19,53,11,1,,,,,
1.508,response_1,shortValid,MORNING,REFEREE,,,,,,WHISTLE,TREASURER,short,resources/sound/trials/audio_stim_comp12.mp3,60fd9ace796a297c6358e5ef,19,Female,Right handed,2021-07-26_21h02.33.304,MA Experiment 2,2021.1.2,MacIntel,62.5,1,20,54,3,1,,,,,
1.208,response_1,shortValid,TORTURE,LECTURER,,,,,,ATHLETE,IVORY,short,resources/sound/trials/audio_stim_comp57.mp3,60fd9ace796a297c6358e5ef,19,Female,Right handed,2021-07-26_21h02.33.304,MA Experiment 2,2021.1.2,MacIntel,62.5,1,21,55,5,1,,,,,
0.838,response_2,longValid,LIQUID,MINISTER,,,,,,ROBBER,RATTLESNAKE,long,resources/sound/trials/audio_stim_human64.mp3,60fd9ace796a297c6358e5ef,19,Female,Right handed,2021-07-26_21h02.33.304,MA Experiment 2,2021.1.2,MacIntel,62.5,1,22,56,32,1,,,,,
1.078,response_2,,MURDER,HANDKERCHIEF,,,,,,JOURNAL,ROBBERY,short,resources/sound/catchTrials/audio_control_human_project02.mp3,60fd9ace796a297c6358e5ef,19,Female,Right handed,2021-07-26_21h02.33.304,MA Experiment 2,2021.1.2,MacIntel,62.5,,,,,,0,5,5,13,1
1.441,response_2,longValid,WAFER,COMMITTEE,,,,,,SACRED,GALAXY,short,resources/sound/trials/audio_stim_comp1.mp3,60fd9ace796a297c6358e5ef,19,Female,Right handed,2021-07-26_21h02.33.304,MA Experiment 2,2021.1.2,MacIntel,62.5,1,23,57,7,1,,,,,
1.678,response_2,shortFoil,CHIPMUNK,POLIO,,,,,,RECEIPT,LIMOUSINE,long,resources/sound/trials/audio_stim_comp40.mp3,60fd9ace796a297c6358e5ef,19,Female,Right handed,2021-07-26_21h02.33.304,MA Experiment 2,2021.1.2,MacIntel,62.5,1,24,58,19,1,,,,,
1.792,response_1,shortValid,HARBOUR,ADMIRAL,,,,,,ATHLETE,IVORY,long,resources/sound/trials/audio_stim_comp57.mp3,60fd9ace796a297c6358e5ef,19,Female,Right handed,2021-07-26_21h02.33.304,MA Experiment 2,2021.1.2,MacIntel,62.5,1,25,59,22,1,,,,,
1.71,response_1,shortFoil,NOVEL,JANITOR,,,,,,BRAINSTORM,GREEN NEEDLE,long,resources/sound/trials/audio_stim_original.mp3,60fd9ace796a297c6358e5ef,19,Female,Right handed,2021-07-26_21h02.33.304,MA Experiment 2,2021.1.2,MacIntel,62.5,1,26,60,33,1,,,,,
1.624,response_2,,SADDLE,PROJECTOR,,,,,,NAVY,RECTANGLE,long,resources/sound/catchTrials/audio_control_comp_project06.mp3,60fd9ace796a297c6358e5ef,19,Female,Right handed,2021-07-26_21h02.33.304,MA Experiment 2,2021.1.2,MacIntel,62.5,,,,,,0,12,12,22,1
1.108,response_2,longValid,FAIRY,LEMONADE,,,,,,PAINTER,VEHICLE,long,resources/sound/trials/audio_stim_human47.mp3,60fd9ace796a297c6358e5ef,19,Female,Right handed,2021-07-26_21h02.33.304,MA Experiment 2,2021.1.2,MacIntel,62.5,1,27,61,28,1,,,,,
2.094,response_2,shortValid,PIANO,APPLIANCE,,,,,,MINER,EMERALD,short,resources/sound/trials/audio_stim_comp6.mp3,60fd9ace796a297c6358e5ef,19,Female,Right handed,2021-07-26_21h02.33.304,MA Experiment 2,2021.1.2,MacIntel,62.5,1,28,62,1,1,,,,,
1.91,response_2,longFoil,CEREAL,BEVERAGE,,,,,,DAYLIGHT,MATERIAL,long,resources/sound/trials/audio_stim_human42.mp3,60fd9ace796a297c6358e5ef,19,Female,Right handed,2021-07-26_21h02.33.304,MA Experiment 2,2021.1.2,MacIntel,62.5,1,29,63,26,1,,,,,
1.412,response_2,longFoil,ANCHOR,POTATO,,,,,,PARTY,SANCTUARY,short,resources/sound/trials/audio_stim_human50.mp3,60fd9ace796a297c6358e5ef,19,Female,Right handed,2021-07-26_21h02.33.304,MA Experiment 2,2021.1.2,MacIntel,62.5,1,30,64,14,1,,,,,
1.41,response_2,,ACRE,SETTLEMENT,,,,,,SPINACH,APRICOT,short,resources/sound/catchTrials/audio_control_comp_project18.mp3,60fd9ace796a297c6358e5ef,19,Female,Right handed,2021-07-26_21h02.33.304,MA Experiment 2,2021.1.2,MacIntel,62.5,,,,,,0,23,23,5,1
1.088,response_1,shortFoil,VALLEY,AMMONIA,,,,,,CONCRETE,ENEMY,long,resources/sound/trials/audio_stim_human67.mp3,60fd9ace796a297c6358e5ef,19,Female,Right handed,2021-07-26_21h02.33.304,MA Experiment 2,2021.1.2,MacIntel,62.5,1,31,65,27,1,,,,,
1.162,response_2,longFoil,GIRDLE,INJURY,,,,,,RUBBER,PROPERTY,long,resources/sound/trials/audio_stim_human0.mp3,60fd9ace796a297c6358e5ef,19,Female,Right handed,2021-07-26_21h02.33.304,MA Experiment 2,2021.1.2,MacIntel,62.5,1,32,66,29,1,,,,,
1.643,response_2,longValid,PIPING,AVENUE,,,,,,MINER,EMERALD,long,resources/sound/trials/audio_stim_human6.mp3,60fd9ace796a297c6358e5ef,19,Female,Right handed,2021-07-26_21h02.33.304,MA Experiment 2,2021.1.2,MacIntel,62.5,1,33,67,30,1,,,,,
1.777,response_2,longFoil,FOREARM,FACTORY,,,,,,SACRED,GALAXY,short,resources/sound/trials/audio_stim_comp1.mp3,60fd9ace796a297c6358e5ef,19,Female,Right handed,2021-07-26_21h02.33.304,MA Experiment 2,2021.1.2,MacIntel,62.5,2,0,68,7,1,,,,,
0.743,response_2,longValid,SULPHUR,TEMPERATURE,,,,,,MINER,EMERALD,long,resources/sound/trials/audio_stim_comp6.mp3,60fd9ace796a297c6358e5ef,19,Female,Right handed,2021-07-26_21h02.33.304,MA Experiment 2,2021.1.2,MacIntel,62.5,2,1,69,18,1,,,,,
1.579,response_1,shortValid,SHEEPSKIN,EMULSION,,,,,,WHISTLE,TREASURER,long,resources/sound/trials/audio_stim_comp12.mp3,60fd9ace796a297c6358e5ef,19,Female,Right handed,2021-07-26_21h02.33.304,MA Experiment 2,2021.1.2,MacIntel,62.5,2,2,70,20,1,,,,,
1.71,response_2,,HARBOUR,JANITOR,,,,,,CORNER,ENGINEER,short,resources/sound/catchTrials/audio_control_comp_project14.mp3,60fd9ace796a297c6358e5ef,19,Female,Right handed,2021-07-26_21h02.33.304,MA Experiment 2,2021.1.2,MacIntel,62.5,,,,,,0,20,20,1,1
0.992,response_1,shortValid,TRAITOR,INFECTION,,,,,,SACRED,GALAXY,long,resources/sound/trials/audio_stim_comp1.mp3,60fd9ace796a297c6358e5ef,19,Female,Right handed,2021-07-26_21h02.33.304,MA Experiment 2,2021.1.2,MacIntel,62.5,2,3,71,24,1,,,,,
1.677,response_1,shortValid,MUSCLE,UMBRELLA,,,,,,RECEIPT,LIMOUSINE,short,resources/sound/trials/audio_stim_comp40.mp3,60fd9ace796a297c6358e5ef,19,Female,Right handed,2021-07-26_21h02.33.304,MA Experiment 2,2021.1.2,MacIntel,62.5,2,4,72,2,1,,,,,
1.342,response_1,longFoil,DWELLER,CONVENTION,,,,,,MINER,EMERALD,short,resources/sound/trials/audio_stim_comp6.mp3,60fd9ace796a297c6358e5ef,19,Female,Right handed,2021-07-26_21h02.33.304,MA Experiment 2,2021.1.2,MacIntel,62.5,2,5,73,1,1,,,,,
1.514,response_2,longFoil,FAIRY,BEVERAGE,,,,,,MINER,EMERALD,short,resources/sound/trials/audio_stim_human6.mp3,60fd9ace796a297c6358e5ef,19,Female,Right handed,2021-07-26_21h02.33.304,MA Experiment 2,2021.1.2,MacIntel,62.5,2,6,74,13,1,,,,,
2.06,response_2,,SHOULDER,HEADQUARTERS,,,,,,ICY,JITTERBUG,short,resources/sound/catchTrials/audio_control_comp_project08.mp3,60fd9ace796a297c6358e5ef,19,Female,Right handed,2021-07-26_21h02.33.304,MA Experiment 2,2021.1.2,MacIntel,62.5,,,,,,0,6,6,7,1
1.207,response_1,shortValid,SINGER,VINEGAR,,,,,,DAYLIGHT,MATERIAL,long,resources/sound/trials/audio_stim_human42.mp3,60fd9ace796a297c6358e5ef,19,Female,Right handed,2021-07-26_21h02.33.304,MA Experiment 2,2021.1.2,MacIntel,62.5,2,7,75,26,1,,,,,
1.227,response_1,shortFoil,MURAL,ENVELOPE,,,,,,WHISTLE,TREASURER,short,resources/sound/trials/audio_stim_comp12.mp3,60fd9ace796a297c6358e5ef,19,Female,Right handed,2021-07-26_21h02.33.304,MA Experiment 2,2021.1.2,MacIntel,62.5,2,8,76,3,1,,,,,
1.878,response_1,shortFoil,NAPKIN,INTERVIEW,,,,,,ATHLETE,IVORY,long,resources/sound/trials/audio_stim_comp57.mp3,60fd9ace796a297c6358e5ef,19,Female,Right handed,2021-07-26_21h02.33.304,MA Experiment 2,2021.1.2,MacIntel,62.5,2,9,77,22,1,,,,,
1.812,response_2,longFoil,PRINCESS,INSTITUTE,,,,,,PARTY,SANCTUARY,long,resources/sound/trials/audio_stim_human50.mp3,60fd9ace796a297c6358e5ef,19,Female,Right handed,2021-07-26_21h02.33.304,MA Experiment 2,2021.1.2,MacIntel,62.5,2,10,78,31,1,,,,,
1.797,response_1,,RABBI,HONEYMOON,,,,,,VIOLET,LUBRICANT,short,resources/sound/catchTrials/audio_control_human_project07.mp3,60fd9ace796a297c6358e5ef,19,Female,Right handed,2021-07-26_21h02.33.304,MA Experiment 2,2021.1.2,MacIntel,62.5,,,,,,0,1,1,12,1
1.227,response_1,longFoil,BERRY,SAXOPHONE,,,,,,CONCRETE,ENEMY,long,resources/sound/trials/audio_stim_human67.mp3,60fd9ace796a297c6358e5ef,19,Female,Right handed,2021-07-26_21h02.33.304,MA Experiment 2,2021.1.2,MacIntel,62.5,2,11,79,27,1,,,,,
1.528,response_2,longValid,STATION,CIGARETTE,,,,,,RECEIPT,LIMOUSINE,long,resources/sound/trials/audio_stim_comp40.mp3,60fd9ace796a297c6358e5ef,19,Female,Right handed,2021-07-26_21h02.33.304,MA Experiment 2,2021.1.2,MacIntel,62.5,2,12,80,19,1,,,,,
1.277,response_2,longValid,WAFER,MESSENGER,,,,,,HARDWARE,OVERCOAT,long,resources/sound/trials/audio_stim_human35.mp3,60fd9ace796a297c6358e5ef,19,Female,Right handed,2021-07-26_21h02.33.304,MA Experiment 2,2021.1.2,MacIntel,62.5,2,13,81,25,1,,,,,
1.178,response_2,shortFoil,EVENING,OPENING,,,,,,PARTY,SANCTUARY,short,resources/sound/trials/audio_stim_human50.mp3,60fd9ace796a297c6358e5ef,19,Female,Right handed,2021-07-26_21h02.33.304,MA Experiment 2,2021.1.2,MacIntel,62.5,2,14,82,14,1,,,,,
0.864,response_1,,DECOY,MONUMENT,,,,,,VIOLET,LUBRICANT,long,resources/sound/catchTrials/audio_control_human_project07.mp3,60fd9ace796a297c6358e5ef,19,Female,Right handed,2021-07-26_21h02.33.304,MA Experiment 2,2021.1.2,MacIntel,62.5,,,,,,0,14,14,28,1
1.06,response_1,shortValid,CAPTAIN,ASBESTOS,,,,,,MINER,EMERALD,long,resources/sound/trials/audio_stim_human6.mp3,60fd9ace796a297c6358e5ef,19,Female,Right handed,2021-07-26_21h02.33.304,MA Experiment 2,2021.1.2,MacIntel,62.5,2,15,83,30,1,,,,,
1.378,response_1,shortFoil,INCOME,CAPITAL,,,,,,CONCRETE,ENEMY,short,resources/sound/trials/audio_stim_human67.mp3,60fd9ace796a297c6358e5ef,19,Female,Right handed,2021-07-26_21h02.33.304,MA Experiment 2,2021.1.2,MacIntel,62.5,2,16,84,10,1,,,,,
1.995,response_2,longFoil,POLO,PHYSICIAN,,,,,,WORKER,VISITOR,short,resources/sound/trials/audio_stim_comp17.mp3,60fd9ace796a297c6358e5ef,19,Female,Right handed,2021-07-26_21h02.33.304,MA Experiment 2,2021.1.2,MacIntel,62.5,2,17,85,6,1,,,,,
1.261,response_2,longValid,SOFA,ALCOHOL,,,,,,PAINTER,VEHICLE,short,resources/sound/trials/audio_stim_human47.mp3,60fd9ace796a297c6358e5ef,19,Female,Right handed,2021-07-26_21h02.33.304,MA Experiment 2,2021.1.2,MacIntel,62.5,2,18,86,11,1,,,,,
0.709,response_2,,HAMMER,INDUSTRY,,,,,,HOBBY,COLONY,short,resources/sound/catchTrials/audio_control_comp_project04.mp3,60fd9ace796a297c6358e5ef,19,Female,Right handed,2021-07-26_21h02.33.304,MA Experiment 2,2021.1.2,MacIntel,62.5,,,,,,0,10,10,2,1
1.477,response_1,shortFoil,NECKLACE,PHOTOGRAPH,,,,,,DRIZZLE,CARDINAL,short,resources/sound/trials/audio_stim_comp69.mp3,60fd9ace796a297c6358e5ef,19,Female,Right handed,2021-07-26_21h02.33.304,MA Experiment 2,2021.1.2,MacIntel,62.5,2,19,87,0,1,,,,,
0.864,response_2,longValid,CRYSTAL,HURRICANE,,,,,,RUBBER,PROPERTY,short,resources/sound/trials/audio_stim_human0.mp3,60fd9ace796a297c6358e5ef,19,Female,Right handed,2021-07-26_21h02.33.304,MA Experiment 2,2021.1.2,MacIntel,62.5,2,20,88,12,1,,,,,
1.264,response_2,shortFoil,FATHER,INSTRUCTOR,,,,,,RUBBER,PROPERTY,long,resources/sound/trials/audio_stim_human0.mp3,60fd9ace796a297c6358e5ef,19,Female,Right handed,2021-07-26_21h02.33.304,MA Experiment 2,2021.1.2,MacIntel,62.5,2,21,89,29,1,,,,,
1.094,response_1,longFoil,CIGAR,MICROSCOPE,,,,,,ATHLETE,IVORY,short,resources/sound/trials/audio_stim_comp57.mp3,60fd9ace796a297c6358e5ef,19,Female,Right handed,2021-07-26_21h02.33.304,MA Experiment 2,2021.1.2,MacIntel,62.5,2,22,90,5,1,,,,,
1.325,response_2,,PATIENT,HANDKERCHIEF,,,,,,ICY,JITTERBUG,long,resources/sound/catchTrials/audio_control_comp_project08.mp3,60fd9ace796a297c6358e5ef,19,Female,Right handed,2021-07-26_21h02.33.304,MA Experiment 2,2021.1.2,MacIntel,62.5,,,,,,0,18,18,23,1
1.592,response_2,shortFoil,HURDLE,GRASSHOPPER,,,,,,WORKER,VISITOR,long,resources/sound/trials/audio_stim_comp17.mp3,60fd9ace796a297c6358e5ef,19,Female,Right handed,2021-07-26_21h02.33.304,MA Experiment 2,2021.1.2,MacIntel,62.5,2,23,91,23,1,,,,,
1.046,response_1,longFoil,CURFEW,OXYGEN,,,,,,BRAINSTORM,GREEN NEEDLE,long,resources/sound/trials/audio_stim_original.mp3,60fd9ace796a297c6358e5ef,19,Female,Right handed,2021-07-26_21h02.33.304,MA Experiment 2,2021.1.2,MacIntel,62.5,2,24,92,33,1,,,,,
1.329,response_1,shortValid,EARTHWORM,INJURY,,,,,,BRAINSTORM,GREEN NEEDLE,short,resources/sound/trials/audio_stim_original.mp3,60fd9ace796a297c6358e5ef,19,Female,Right handed,2021-07-26_21h02.33.304,MA Experiment 2,2021.1.2,MacIntel,62.5,2,25,93,16,1,,,,,
1.279,response_2,shortValid,BUTTER,ABDOMEN,,,,,,ROBBER,RATTLESNAKE,long,resources/sound/trials/audio_stim_human64.mp3,60fd9ace796a297c6358e5ef,19,Female,Right handed,2021-07-26_21h02.33.304,MA Experiment 2,2021.1.2,MacIntel,62.5,2,26,94,32,1,,,,,
1.346,response_1,,SADDLE,STRAWBERRY,,,,,,JUGGLER,DANDELION,long,resources/sound/catchTrials/audio_control_human_project09.mp3,60fd9ace796a297c6358e5ef,19,Female,Right handed,2021-07-26_21h02.33.304,MA Experiment 2,2021.1.2,MacIntel,62.5,,,,,,0,3,3,31,1
1.177,response_1,longFoil,KENNEL,GOVERNMENT,,,,,,DRIZZLE,CARDINAL,long,resources/sound/trials/audio_stim_comp69.mp3,60fd9ace796a297c6358e5ef,19,Female,Right handed,2021-07-26_21h02.33.304,MA Experiment 2,2021.1.2,MacIntel,62.5,2,27,95,17,1,,,,,
0.828,response_2,longFoil,TUMBLE,MECHANIC,,,,,,MARBLE,CUSTOMER,long,resources/sound/trials/audio_stim_comp65.mp3,60fd9ace796a297c6358e5ef,19,Female,Right handed,2021-07-26_21h02.33.304,MA Experiment 2,2021.1.2,MacIntel,62.5,2,28,96,21,1,,,,,
0.996,response_2,shortFoil,BEETLE,CANDLELIGHT,,,,,,MARBLE,CUSTOMER,short,resources/sound/trials/audio_stim_comp65.mp3,60fd9ace796a297c6358e5ef,19,Female,Right handed,2021-07-26_21h02.33.304,MA Experiment 2,2021.1.2,MacIntel,62.5,2,29,97,4,1,,,,,
1.612,response_2,longFoil,SCOOTER,DISSECTION,,,,,,DAYLIGHT,MATERIAL,short,resources/sound/trials/audio_stim_human42.mp3,60fd9ace796a297c6358e5ef,19,Female,Right handed,2021-07-26_21h02.33.304,MA Experiment 2,2021.1.2,MacIntel,62.5,2,30,98,9,1,,,,,
0.913,response_1,,ACRE,MINERAL,,,,,,VIOLET,LUBRICANT,long,resources/sound/catchTrials/audio_control_comp_project07.mp3,60fd9ace796a297c6358e5ef,19,Female,Right handed,2021-07-26_21h02.33.304,MA Experiment 2,2021.1.2,MacIntel,62.5,,,,,,0,15,15,19,1
0.978,response_2,longFoil,CHIPMUNK,BUTTERFLY,,,,,,ROBBER,RATTLESNAKE,short,resources/sound/trials/audio_stim_human64.mp3,60fd9ace796a297c6358e5ef,19,Female,Right handed,2021-07-26_21h02.33.304,MA Experiment 2,2021.1.2,MacIntel,62.5,2,31,99,15,1,,,,,
2.192,response_1,longFoil,KERNEL,NEWSPAPER,,,,,,PAINTER,VEHICLE,long,resources/sound/trials/audio_stim_human47.mp3,60fd9ace796a297c6358e5ef,19,Female,Right handed,2021-07-26_21h02.33.304,MA Experiment 2,2021.1.2,MacIntel,62.5,2,32,100,28,1,,,,,
1.527,response_1,shortValid,CEREAL,FACTORY,,,,,,HARDWARE,OVERCOAT,short,resources/sound/trials/audio_stim_human35.mp3,60fd9ace796a297c6358e5ef,19,Female,Right handed,2021-07-26_21h02.33.304,MA Experiment 2,2021.1.2,MacIntel,62.5,2,33,101,8,1,,,,,
1.111,response_1,shortValid,FOREARM,CAMERA,,,,,,MINER,EMERALD,short,resources/sound/trials/audio_stim_human6.mp3,60fd9ace796a297c6358e5ef,19,Female,Right handed,2021-07-26_21h02.33.304,MA Experiment 2,2021.1.2,MacIntel,62.5,3,0,102,13,1,,,,,
1.513,response_1,shortValid,TEMPLE,AMBULANCE,,,,,,DRIZZLE,CARDINAL,long,resources/sound/trials/audio_stim_comp69.mp3,60fd9ace796a297c6358e5ef,19,Female,Right handed,2021-07-26_21h02.33.304,MA Experiment 2,2021.1.2,MacIntel,62.5,3,1,103,17,1,,,,,
1.078,response_1,shortValid,NOVEL,ATHLETICS,,,,,,CONCRETE,ENEMY,short,resources/sound/trials/audio_stim_human67.mp3,60fd9ace796a297c6358e5ef,19,Female,Right handed,2021-07-26_21h02.33.304,MA Experiment 2,2021.1.2,MacIntel,62.5,3,2,104,10,1,,,,,
1.162,response_2,,MURDER,POLICEMAN,,,,,,NAVY,RECTANGLE,long,resources/sound/catchTrials/audio_control_human_project06.mp3,60fd9ace796a297c6358e5ef,19,Female,Right handed,2021-07-26_21h02.33.304,MA Experiment 2,2021.1.2,MacIntel,62.5,,,,,,0,19,19,30,1
1.31,response_1,longFoil,DIAL,ENAMEL,,,,,,RECEIPT,LIMOUSINE,long,resources/sound/trials/audio_stim_comp40.mp3,60fd9ace796a297c6358e5ef,19,Female,Right handed,2021-07-26_21h02.33.304,MA Experiment 2,2021.1.2,MacIntel,62.5,3,3,105,19,1,,,,,
1.529,response_2,longFoil,MISTRESS,ADMIRAL,,,,,,HARDWARE,OVERCOAT,short,resources/sound/trials/audio_stim_human35.mp3,60fd9ace796a297c6358e5ef,19,Female,Right handed,2021-07-26_21h02.33.304,MA Experiment 2,2021.1.2,MacIntel,62.5,3,4,106,8,1,,,,,
1.046,response_1,shortValid,VILLAGE,CITIZEN,,,,,,CONCRETE,ENEMY,long,resources/sound/trials/audio_stim_human67.mp3,60fd9ace796a297c6358e5ef,19,Female,Right handed,2021-07-26_21h02.33.304,MA Experiment 2,2021.1.2,MacIntel,62.5,3,5,107,27,1,,,,,
1.194,response_1,longFoil,MEDICINE,COMMITTEE,,,,,,ATHLETE,IVORY,long,resources/sound/trials/audio_stim_comp57.mp3,60fd9ace796a297c6358e5ef,19,Female,Right handed,2021-07-26_21h02.33.304,MA Experiment 2,2021.1.2,MacIntel,62.5,3,6,108,22,1,,,,,
1.182,response_2,,LEADER,REFEREE,,,,,,IRIS,VIOLIN,long,resources/sound/catchTrials/audio_control_comp_project12.mp3,60fd9ace796a297c6358e5ef,19,Female,Right handed,2021-07-26_21h02.33.304,MA Experiment 2,2021.1.2,MacIntel,62.5,,,,,,0,4,4,20,1
0.912,response_2,shortFoil,DANCER,PROJECTOR,,,,,,DAYLIGHT,MATERIAL,long,resources/sound/trials/audio_stim_human42.mp3,60fd9ace796a297c6358e5ef,19,Female,Right handed,2021-07-26_21h02.33.304,MA Experiment 2,2021.1.2,MacIntel,62.5,3,7,109,26,1,,,,,
0.997,response_2,longValid,MORNING,SETTLEMENT,,,,,,PARTY,SANCTUARY,short,resources/sound/trials/audio_stim_human50.mp3,60fd9ace796a297c6358e5ef,19,Female,Right handed,2021-07-26_21h02.33.304,MA Experiment 2,2021.1.2,MacIntel,62.5,3,8,110,14,1,,,,,
1.612,response_1,shortValid,PERSON,ORNAMENT,,,,,,PAINTER,VEHICLE,short,resources/sound/trials/audio_stim_human47.mp3,60fd9ace796a297c6358e5ef,19,Female,Right handed,2021-07-26_21h02.33.304,MA Experiment 2,2021.1.2,MacIntel,62.5,3,9,111,11,1,,,,,
1.178,response_1,shortValid,TWEEZER,HOSPITAL,,,,,,BRAINSTORM,GREEN NEEDLE,long,resources/sound/trials/audio_stim_original.mp3,60fd9ace796a297c6358e5ef,19,Female,Right handed,2021-07-26_21h02.33.304,MA Experiment 2,2021.1.2,MacIntel,62.5,3,10,112,33,1,,,,,
0.978,response_2,,FERTILE,GYMNASTICS,,,,,,JOURNAL,ROBBERY,long,resources/sound/catchTrials/audio_control_human_project02.mp3,60fd9ace796a297c6358e5ef,19,Female,Right handed,2021-07-26_21h02.33.304,MA Experiment 2,2021.1.2,MacIntel,62.5,,,,,,0,31,31,29,1
1.695,response_1,longFoil,OFFICE,FAMILY,,,,,,WHISTLE,TREASURER,long,resources/sound/trials/audio_stim_comp12.mp3,60fd9ace796a297c6358e5ef,19,Female,Right handed,2021-07-26_21h02.33.304,MA Experiment 2,2021.1.2,MacIntel,62.5,3,11,113,20,1,,,,,
1.394,response_1,longValid,RUSTY,MINISTER,,,,,,BRAINSTORM,GREEN NEEDLE,short,resources/sound/trials/audio_stim_original.mp3,60fd9ace796a297c6358e5ef,19,Female,Right handed,2021-07-26_21h02.33.304,MA Experiment 2,2021.1.2,MacIntel,62.5,3,12,114,16,1,,,,,
1.278,response_2,shortFoil,SEGMENT,GALLERY,,,,,,MINER,EMERALD,long,resources/sound/trials/audio_stim_human6.mp3,60fd9ace796a297c6358e5ef,19,Female,Right handed,2021-07-26_21h02.33.304,MA Experiment 2,2021.1.2,MacIntel,62.5,3,13,115,30,1,,,,,
1.24,response_2,longValid,CANTEEN,TANGERINE,,,,,,PARTY,SANCTUARY,long,resources/sound/trials/audio_stim_human50.mp3,60fd9ace796a297c6358e5ef,19,Female,Right handed,2021-07-26_21h02.33.304,MA Experiment 2,2021.1.2,MacIntel,62.5,3,14,116,31,1,,,,,
1.264,response_1,,WRITING,FISHERMAN,,,,,,VIOLET,LUBRICANT,short,resources/sound/catchTrials/audio_control_comp_project07.mp3,60fd9ace796a297c6358e5ef,19,Female,Right handed,2021-07-26_21h02.33.304,MA Experiment 2,2021.1.2,MacIntel,62.5,,,,,,0,13,13,3,1
1.476,response_2,shortFoil,DIVING,CROCODILE,,,,,,SACRED,GALAXY,short,resources/sound/trials/audio_stim_comp1.mp3,60fd9ace796a297c6358e5ef,19,Female,Right handed,2021-07-26_21h02.33.304,MA Experiment 2,2021.1.2,MacIntel,62.5,3,15,117,7,1,,,,,
2.328,response_1,shortFoil,VAPOUR,GORILLA,,,,,,PAINTER,VEHICLE,long,resources/sound/trials/audio_stim_human47.mp3,60fd9ace796a297c6358e5ef,19,Female,Right handed,2021-07-26_21h02.33.304,MA Experiment 2,2021.1.2,MacIntel,62.5,3,16,118,28,1,,,,,
1.178,response_1,shortValid,LIQUID,INSTRUMENT,,,,,,WORKER,VISITOR,short,resources/sound/trials/audio_stim_comp17.mp3,60fd9ace796a297c6358e5ef,19,Female,Right handed,2021-07-26_21h02.33.304,MA Experiment 2,2021.1.2,MacIntel,62.5,3,17,119,6,1,,,,,
1.012,response_1,shortValid,OLIVE,POLIO,,,,,,MINER,EMERALD,long,resources/sound/trials/audio_stim_comp6.mp3,60fd9ace796a297c6358e5ef,19,Female,Right handed,2021-07-26_21h02.33.304,MA Experiment 2,2021.1.2,MacIntel,62.5,3,18,120,18,1,,,,,
0.913,response_2,,ANCHOR,PROPELLER,,,,,,SPINACH,APRICOT,long,resources/sound/catchTrials/audio_control_comp_project18.mp3,60fd9ace796a297c6358e5ef,19,Female,Right handed,2021-07-26_21h02.33.304,MA Experiment 2,2021.1.2,MacIntel,62.5,,,,,,0,24,24,21,1
1.547,response_1,longValid,PICTURE,CLARINET,,,,,,DRIZZLE,CARDINAL,short,resources/sound/trials/audio_stim_comp69.mp3,60fd9ace796a297c6358e5ef,19,Female,Right handed,2021-07-26_21h02.33.304,MA Experiment 2,2021.1.2,MacIntel,62.5,3,19,121,0,1,,,,,
1.094,response_2,shortFoil,JURY,FIREWOOD,,,,,,ROBBER,RATTLESNAKE,long,resources/sound/trials/audio_stim_human64.mp3,60fd9ace796a297c6358e5ef,19,Female,Right handed,2021-07-26_21h02.33.304,MA Experiment 2,2021.1.2,MacIntel,62.5,3,20,122,32,1,,,,,
0.895,response_1,shortValid,PIPING,RETAILER,,,,,,DAYLIGHT,MATERIAL,short,resources/sound/trials/audio_stim_human42.mp3,60fd9ace796a297c6358e5ef,19,Female,Right handed,2021-07-26_21h02.33.304,MA Experiment 2,2021.1.2,MacIntel,62.5,3,21,123,9,1,,,,,
0.794,response_2,longValid,CABIN,MERCURY,,,,,,MINER,EMERALD,short,resources/sound/trials/audio_stim_comp6.mp3,60fd9ace796a297c6358e5ef,19,Female,Right handed,2021-07-26_21h02.33.304,MA Experiment 2,2021.1.2,MacIntel,62.5,3,22,124,1,1,,,,,
1.529,response_2,,GIRDLE,ACROBAT,,,,,,HOBBY,COLONY,long,resources/sound/catchTrials/audio_control_comp_project04.mp3,60fd9ace796a297c6358e5ef,19,Female,Right handed,2021-07-26_21h02.33.304,MA Experiment 2,2021.1.2,MacIntel,62.5,,,,,,0,8,8,18,1
0.893,response_2,longValid,BISHOP,CATHEDRAL,,,,,,RUBBER,PROPERTY,long,resources/sound/trials/audio_stim_human0.mp3,60fd9ace796a297c6358e5ef,19,Female,Right handed,2021-07-26_21h02.33.304,MA Experiment 2,2021.1.2,MacIntel,62.5,3,23,125,29,1,,,,,
0.843,response_2,longFoil,VALLEY,ALPHABET,,,,,,WORKER,VISITOR,long,resources/sound/trials/audio_stim_comp17.mp3,60fd9ace796a297c6358e5ef,19,Female,Right handed,2021-07-26_21h02.33.304,MA Experiment 2,2021.1.2,MacIntel,62.5,3,24,126,23,1,,,,,
1.293,response_2,longFoil,STOCKING,ICICLE,,,,,,HARDWARE,OVERCOAT,long,resources/sound/trials/audio_stim_human35.mp3,60fd9ace796a297c6358e5ef,19,Female,Right handed,2021-07-26_21h02.33.304,MA Experiment 2,2021.1.2,MacIntel,62.5,3,25,127,25,1,,,,,
1.196,response_2,shortValid,WINDOW,MOSQUITO,,,,,,MARBLE,CUSTOMER,short,resources/sound/trials/audio_stim_comp65.mp3,60fd9ace796a297c6358e5ef,19,Female,Right handed,2021-07-26_21h02.33.304,MA Experiment 2,2021.1.2,MacIntel,62.5,3,26,128,4,1,,,,,
1.33,response_2,,LOBSTER,CHOCOLATE,,,,,,IRIS,VIOLIN,short,resources/sound/catchTrials/audio_control_human_project12.mp3,60fd9ace796a297c6358e5ef,19,Female,Right handed,2021-07-26_21h02.33.304,MA Experiment 2,2021.1.2,MacIntel,62.5,,,,,,0,21,21,8,1
1.061,response_2,shortFoil,LIGHTNING,CABINET,,,,,,RUBBER,PROPERTY,short,resources/sound/trials/audio_stim_human0.mp3,60fd9ace796a297c6358e5ef,19,Female,Right handed,2021-07-26_21h02.33.304,MA Experiment 2,2021.1.2,MacIntel,62.5,3,27,129,12,1,,,,,
1.145,response_1,longFoil,GRADUATE,MEDICINE,,,,,,SACRED,GALAXY,long,resources/sound/trials/audio_stim_comp1.mp3,60fd9ace796a297c6358e5ef,19,Female,Right handed,2021-07-26_21h02.33.304,MA Experiment 2,2021.1.2,MacIntel,62.5,3,28,130,24,1,,,,,
1.093,response_2,longValid,MOONLIGHT,LECTURER,,,,,,RECEIPT,LIMOUSINE,short,resources/sound/trials/audio_stim_comp40.mp3,60fd9ace796a297c6358e5ef,19,Female,Right handed,2021-07-26_21h02.33.304,MA Experiment 2,2021.1.2,MacIntel,62.5,3,29,131,2,1,,,,,
1.614,response_2,shortFoil,VESSEL,DESTROYER,,,,,,MARBLE,CUSTOMER,long,resources/sound/trials/audio_stim_comp65.mp3,60fd9ace796a297c6358e5ef,19,Female,Right handed,2021-07-26_21h02.33.304,MA Experiment 2,2021.1.2,MacIntel,62.5,3,30,132,21,1,,,,,
1.411,response_2,,UNCLE,HEROIN,,,,,,BORDER,ALGEBRA,short,resources/sound/catchTrials/audio_control_comp_project00.mp3,60fd9ace796a297c6358e5ef,19,Female,Right handed,2021-07-26_21h02.33.304,MA Experiment 2,2021.1.2,MacIntel,62.5,,,,,,0,2,2,0,1
0.745,response_2,shortValid,PODIUM,AVENUE,,,,,,ROBBER,RATTLESNAKE,short,resources/sound/trials/audio_stim_human64.mp3,60fd9ace796a297c6358e5ef,19,Female,Right handed,2021-07-26_21h02.33.304,MA Experiment 2,2021.1.2,MacIntel,62.5,3,31,133,15,1,,,,,
1.377,response_3,longFoil,MEASLES,CINNAMON,,,,,,WHISTLE,TREASURER,short,resources/sound/trials/audio_stim_comp12.mp3,60fd9ace796a297c6358e5ef,19,Female,Right handed,2021-07-26_21h02.33.304,MA Experiment 2,2021.1.2,MacIntel,62.5,3,32,134,3,1,,,,,
0.831,response_1,shortFoil,WALRUS,NEIGHBOURHOOD,,,,,,ATHLETE,IVORY,short,resources/sound/trials/audio_stim_comp57.mp3,60fd9ace796a297c6358e5ef,19,Female,Right handed,2021-07-26_21h02.33.304,MA Experiment 2,2021.1.2,MacIntel,62.5,3,33,135,5,1,,,,,
