response.time,response,cueTarget,rand_foil_1,rand_foil_2,prac_trials.thisRepN,prac_trials.thisTrialN,prac_trials.thisN,prac_trials.thisIndex,prac_trials.ran,word_1,word_2,cue,file_path,participant,age,gender,handedness,date,expName,psychopyVersion,OS,frameRate,trials.thisRepN,trials.thisTrialN,trials.thisN,trials.thisIndex,trials.ran,catchTrials.thisRepN,catchTrials.thisTrialN,catchTrials.thisN,catchTrials.thisIndex,catchTrials.ran
3.0091,response_2,longValid,INVOICE,MOLECULE,0,0,0,9,1,GRUMPY,LABYRINTH,long,resources/sound/prac_trials/practice_cue_human9.mp3,60fd7e00d473aab9ce3a8b39,18,Female,Right handed,2021-07-26_20h42.43.724,MA Experiment 2,2021.1.2,Win32,60.35003017,,,,,,,,,,
1.9937,response_1,longValid,STOCKING,CAMERA,0,1,1,11,1,KETCHUP,GONDOLA,long,resources/sound/prac_trials/practice_cue_human11.mp3,60fd7e00d473aab9ce3a8b39,18,Female,Right handed,2021-07-26_20h42.43.724,MA Experiment 2,2021.1.2,Win32,60.35003017,,,,,,,,,,
1.4115,response_2,shortValid,BURNER,GOVERNMENT,0,2,2,8,1,DAGGER,EMPHASIS,long,resources/sound/prac_trials/practice_cue8.mp3,60fd7e00d473aab9ce3a8b39,18,Female,Right handed,2021-07-26_20h42.43.724,MA Experiment 2,2021.1.2,Win32,60.35003017,,,,,,,,,,
0.5942,response_2,shortFoil,CIGAR,CORRIDOR,0,3,3,3,1,EAGER,QUALIFY,short,resources/sound/prac_trials/practice_cue_human3.mp3,60fd7e00d473aab9ce3a8b39,18,Female,Right handed,2021-07-26_20h42.43.724,MA Experiment 2,2021.1.2,Win32,60.35003017,,,,,,,,,,
1.1779,response_2,longFoil,BERRY,HURRICANE,0,4,4,6,1,VACANT,SALVATION,long,resources/sound/prac_trials/practice_cue6.mp3,60fd7e00d473aab9ce3a8b39,18,Female,Right handed,2021-07-26_20h42.43.724,MA Experiment 2,2021.1.2,Win32,60.35003017,,,,,,,,,,
1.6278,response_2,longValid,PATIENT,MINERAL,0,5,5,7,1,BUCKLE,WALLABY,long,resources/sound/prac_trials/practice_cue_human7.mp3,60fd7e00d473aab9ce3a8b39,18,Female,Right handed,2021-07-26_20h42.43.724,MA Experiment 2,2021.1.2,Win32,60.35003017,,,,,,,,,,
1.312,response_2,shortFoil,BUTTER,SAXOPHONE,0,6,6,4,1,FIZZY,ELECTRIC,short,resources/sound/prac_trials/practice_cue4.mp3,60fd7e00d473aab9ce3a8b39,18,Female,Right handed,2021-07-26_20h42.43.724,MA Experiment 2,2021.1.2,Win32,60.35003017,,,,,,,,,,
1.9285,response_1,shortValid,BISHOP,MERCURY,0,7,7,0,1,AARDVARK,FALLACY,short,resources/sound/prac_trials/practice_cue0.mp3,60fd7e00d473aab9ce3a8b39,18,Female,Right handed,2021-07-26_20h42.43.724,MA Experiment 2,2021.1.2,Win32,60.35003017,,,,,,,,,,
0.7281,response_1,shortValid,OLIVE,DIAMOND,0,8,8,10,1,SAFFRON,JAVELIN,long,resources/sound/prac_trials/practice_cue10.mp3,60fd7e00d473aab9ce3a8b39,18,Female,Right handed,2021-07-26_20h42.43.724,MA Experiment 2,2021.1.2,Win32,60.35003017,,,,,,,,,,
1.412,response_1,shortFoil,MISTRESS,UMBRELLA,0,9,9,5,1,NONSENSE,OASIS,short,resources/sound/prac_trials/practice_cue_human5.mp3,60fd7e00d473aab9ce3a8b39,18,Female,Right handed,2021-07-26_20h42.43.724,MA Experiment 2,2021.1.2,Win32,60.35003017,,,,,,,,,,
2.0454,response_2,shortValid,VALLEY,HEADQUARTERS,0,10,10,1,1,CABLE,REPUBLIC,short,resources/sound/prac_trials/practice_cue_human1.mp3,60fd7e00d473aab9ce3a8b39,18,Female,Right handed,2021-07-26_20h42.43.724,MA Experiment 2,2021.1.2,Win32,60.35003017,,,,,,,,,,
1.6288,response_2,longFoil,KETTLE,ALCOHOL,0,11,11,2,1,RECENT,TOBACCO,short,resources/sound/prac_trials/practice_cue2.mp3,60fd7e00d473aab9ce3a8b39,18,Female,Right handed,2021-07-26_20h42.43.724,MA Experiment 2,2021.1.2,Win32,60.35003017,,,,,,,,,,
1.8615,response_1,shortFoil,LIGHTNING,STRAWBERRY,,,,,,SACRED,GALAXY,long,resources/sound/trials/audio_stim_comp1.mp3,60fd7e00d473aab9ce3a8b39,18,Female,Right handed,2021-07-26_20h42.43.724,MA Experiment 2,2021.1.2,Win32,60.35003017,0,0,0,24,1,,,,,
1.7431,response_1,longFoil,LEADER,DESTROYER,,,,,,MARBLE,CUSTOMER,long,resources/sound/trials/audio_stim_comp65.mp3,60fd7e00d473aab9ce3a8b39,18,Female,Right handed,2021-07-26_20h42.43.724,MA Experiment 2,2021.1.2,Win32,60.35003017,0,1,1,21,1,,,,,
1.0953,response_2,longFoil,PRINCESS,CROCODILE,,,,,,WORKER,VISITOR,long,resources/sound/trials/audio_stim_comp17.mp3,60fd7e00d473aab9ce3a8b39,18,Female,Right handed,2021-07-26_20h42.43.724,MA Experiment 2,2021.1.2,Win32,60.35003017,0,2,2,23,1,,,,,
1.2278,response_1,,SULPHUR,ATHLETICS,,,,,,POISON,REVOLVER,long,resources/sound/catchTrials/audio_control_human_project01.mp3,60fd7e00d473aab9ce3a8b39,18,Female,Right handed,2021-07-26_20h42.43.724,MA Experiment 2,2021.1.2,Win32,60.35003017,,,,,,0,25,25,25,1
0.8954,response_1,shortFoil,TORTURE,EMULSION,,,,,,BRAINSTORM,GREEN NEEDLE,long,resources/sound/trials/audio_stim_original.mp3,60fd7e00d473aab9ce3a8b39,18,Female,Right handed,2021-07-26_20h42.43.724,MA Experiment 2,2021.1.2,Win32,60.35003017,0,3,3,33,1,,,,,
2.3616,response_2,shortFoil,DUEL,ANTIQUE,,,,,,PAINTER,VEHICLE,long,resources/sound/trials/audio_stim_human47.mp3,60fd7e00d473aab9ce3a8b39,18,Female,Right handed,2021-07-26_20h42.43.724,MA Experiment 2,2021.1.2,Win32,60.35003017,0,4,4,28,1,,,,,
0.9622,response_1,longValid,INCOME,BUTTERFLY,,,,,,SACRED,GALAXY,short,resources/sound/trials/audio_stim_comp1.mp3,60fd7e00d473aab9ce3a8b39,18,Female,Right handed,2021-07-26_20h42.43.724,MA Experiment 2,2021.1.2,Win32,60.35003017,0,5,5,7,1,,,,,
0.5117,response_2,longValid,LOBSTER,INDUSTRY,,,,,,WORKER,VISITOR,short,resources/sound/trials/audio_stim_comp17.mp3,60fd7e00d473aab9ce3a8b39,18,Female,Right handed,2021-07-26_20h42.43.724,MA Experiment 2,2021.1.2,Win32,60.35003017,0,6,6,6,1,,,,,
1.4447,response_1,,GRADUATE,PROPELLER,,,,,,VIOLET,LUBRICANT,short,resources/sound/catchTrials/audio_control_human_project07.mp3,60fd7e00d473aab9ce3a8b39,18,Female,Right handed,2021-07-26_20h42.43.724,MA Experiment 2,2021.1.2,Win32,60.35003017,,,,,,0,13,13,12,1
1.6782,response_1,shortValid,HURDLE,OXYGEN,,,,,,DAYLIGHT,MATERIAL,long,resources/sound/trials/audio_stim_human42.mp3,60fd7e00d473aab9ce3a8b39,18,Female,Right handed,2021-07-26_20h42.43.724,MA Experiment 2,2021.1.2,Win32,60.35003017,0,7,7,26,1,,,,,
1.9945,response_1,longFoil,KENNEL,POLICEMAN,,,,,,MINER,EMERALD,short,resources/sound/trials/audio_stim_human6.mp3,60fd7e00d473aab9ce3a8b39,18,Female,Right handed,2021-07-26_20h42.43.724,MA Experiment 2,2021.1.2,Win32,60.35003017,0,8,8,13,1,,,,,
1.012,response_1,shortValid,DWELLER,GYMNASTICS,,,,,,ATHLETE,IVORY,short,resources/sound/trials/audio_stim_comp57.mp3,60fd7e00d473aab9ce3a8b39,18,Female,Right handed,2021-07-26_20h42.43.724,MA Experiment 2,2021.1.2,Win32,60.35003017,0,9,9,5,1,,,,,
1.1291,response_1,shortFoil,KERNEL,CHOCOLATE,,,,,,DRIZZLE,CARDINAL,long,resources/sound/trials/audio_stim_comp69.mp3,60fd7e00d473aab9ce3a8b39,18,Female,Right handed,2021-07-26_20h42.43.724,MA Experiment 2,2021.1.2,Win32,60.35003017,0,10,10,17,1,,,,,
1.1114,response_2,,FEVER,OPENING,,,,,,CORNER,ENGINEER,short,resources/sound/catchTrials/audio_control_comp_project14.mp3,60fd7e00d473aab9ce3a8b39,18,Female,Right handed,2021-07-26_20h42.43.724,MA Experiment 2,2021.1.2,Win32,60.35003017,,,,,,0,30,30,1,1
0.7281,response_1,shortFoil,WINDOW,NEWSPAPER,,,,,,DRIZZLE,CARDINAL,short,resources/sound/trials/audio_stim_comp69.mp3,60fd7e00d473aab9ce3a8b39,18,Female,Right handed,2021-07-26_20h42.43.724,MA Experiment 2,2021.1.2,Win32,60.35003017,0,11,11,0,1,,,,,
1.6784,response_2,longFoil,DIVING,CARNATION,,,,,,CONCRETE,ENEMY,long,resources/sound/trials/audio_stim_human67.mp3,60fd7e00d473aab9ce3a8b39,18,Female,Right handed,2021-07-26_20h42.43.724,MA Experiment 2,2021.1.2,Win32,60.35003017,0,12,12,27,1,,,,,
1.8124,response_2,longFoil,WAFER,CINNAMON,,,,,,ROBBER,RATTLESNAKE,long,resources/sound/trials/audio_stim_human64.mp3,60fd7e00d473aab9ce3a8b39,18,Female,Right handed,2021-07-26_20h42.43.724,MA Experiment 2,2021.1.2,Win32,60.35003017,0,13,13,32,1,,,,,
1.9791,response_1,shortFoil,PODIUM,MINISTER,,,,,,CONCRETE,ENEMY,short,resources/sound/trials/audio_stim_human67.mp3,60fd7e00d473aab9ce3a8b39,18,Female,Right handed,2021-07-26_20h42.43.724,MA Experiment 2,2021.1.2,Win32,60.35003017,0,14,14,10,1,,,,,
1.0445,response_2,,SADDLE,BEVERAGE,,,,,,CORNER,ENGINEER,short,resources/sound/catchTrials/audio_control_human_project14.mp3,60fd7e00d473aab9ce3a8b39,18,Female,Right handed,2021-07-26_20h42.43.724,MA Experiment 2,2021.1.2,Win32,60.35003017,,,,,,0,11,11,10,1
2.2277,response_1,shortFoil,CEREAL,SPECIALIST,,,,,,PARTY,SANCTUARY,long,resources/sound/trials/audio_stim_human50.mp3,60fd7e00d473aab9ce3a8b39,18,Female,Right handed,2021-07-26_20h42.43.724,MA Experiment 2,2021.1.2,Win32,60.35003017,0,15,15,31,1,,,,,
3.0948,response_1,longValid,TRAITOR,AMBULANCE,,,,,,MARBLE,CUSTOMER,short,resources/sound/trials/audio_stim_comp65.mp3,60fd7e00d473aab9ce3a8b39,18,Female,Right handed,2021-07-26_20h42.43.724,MA Experiment 2,2021.1.2,Win32,60.35003017,0,16,16,4,1,,,,,
2.3619,response_2,shortValid,MORNING,INJURY,,,,,,RECEIPT,LIMOUSINE,long,resources/sound/trials/audio_stim_comp40.mp3,60fd7e00d473aab9ce3a8b39,18,Female,Right handed,2021-07-26_20h42.43.724,MA Experiment 2,2021.1.2,Win32,60.35003017,0,17,17,19,1,,,,,
1.0457,response_2,longFoil,SEGMENT,LECTURER,,,,,,MINER,EMERALD,short,resources/sound/trials/audio_stim_comp6.mp3,60fd7e00d473aab9ce3a8b39,18,Female,Right handed,2021-07-26_20h42.43.724,MA Experiment 2,2021.1.2,Win32,60.35003017,0,18,18,1,1,,,,,
0.6123,response_2,,FERTILE,PHOTOGRAPH,,,,,,SPINACH,APRICOT,short,resources/sound/catchTrials/audio_control_comp_project18.mp3,60fd7e00d473aab9ce3a8b39,18,Female,Right handed,2021-07-26_20h42.43.724,MA Experiment 2,2021.1.2,Win32,60.35003017,,,,,,0,2,2,5,1
0.962,response_2,longFoil,SODA,HOSPITAL,,,,,,RUBBER,PROPERTY,short,resources/sound/trials/audio_stim_human0.mp3,60fd7e00d473aab9ce3a8b39,18,Female,Right handed,2021-07-26_20h42.43.724,MA Experiment 2,2021.1.2,Win32,60.35003017,0,19,19,12,1,,,,,
2.2449,response_1,longValid,CAPTAIN,MOSQUITO,,,,,,ATHLETE,IVORY,long,resources/sound/trials/audio_stim_comp57.mp3,60fd7e00d473aab9ce3a8b39,18,Female,Right handed,2021-07-26_20h42.43.724,MA Experiment 2,2021.1.2,Win32,60.35003017,0,20,20,22,1,,,,,
1.6448,response_2,shortFoil,FATHER,INSTITUTE,,,,,,PARTY,SANCTUARY,short,resources/sound/trials/audio_stim_human50.mp3,60fd7e00d473aab9ce3a8b39,18,Female,Right handed,2021-07-26_20h42.43.724,MA Experiment 2,2021.1.2,Win32,60.35003017,0,21,21,14,1,,,,,
2.0287,response_2,longFoil,HARBOUR,CANDLELIGHT,,,,,,PAINTER,VEHICLE,short,resources/sound/trials/audio_stim_human47.mp3,60fd7e00d473aab9ce3a8b39,18,Female,Right handed,2021-07-26_20h42.43.724,MA Experiment 2,2021.1.2,Win32,60.35003017,0,22,22,11,1,,,,,
0.5959,response_2,,NEIGHBOUR,AMMONIA,,,,,,JOURNAL,ROBBERY,short,resources/sound/catchTrials/audio_control_human_project02.mp3,60fd7e00d473aab9ce3a8b39,18,Female,Right handed,2021-07-26_20h42.43.724,MA Experiment 2,2021.1.2,Win32,60.35003017,,,,,,0,21,21,13,1
3.3451,response_2,shortFoil,SINGER,ASBESTOS,,,,,,ROBBER,RATTLESNAKE,short,resources/sound/trials/audio_stim_human64.mp3,60fd7e00d473aab9ce3a8b39,18,Female,Right handed,2021-07-26_20h42.43.724,MA Experiment 2,2021.1.2,Win32,60.35003017,0,23,23,15,1,,,,,
1.645,response_1,shortValid,DANCER,CLARINET,,,,,,WHISTLE,TREASURER,short,resources/sound/trials/audio_stim_comp12.mp3,60fd7e00d473aab9ce3a8b39,18,Female,Right handed,2021-07-26_20h42.43.724,MA Experiment 2,2021.1.2,Win32,60.35003017,0,24,24,3,1,,,,,
1.1953,response_2,longValid,SOFA,ALPHABET,,,,,,RUBBER,PROPERTY,long,resources/sound/trials/audio_stim_human0.mp3,60fd7e00d473aab9ce3a8b39,18,Female,Right handed,2021-07-26_20h42.43.724,MA Experiment 2,2021.1.2,Win32,60.35003017,0,25,25,29,1,,,,,
1.8115,response_2,shortValid,RABBI,HONEYMOON,,,,,,MINER,EMERALD,long,resources/sound/trials/audio_stim_human6.mp3,60fd7e00d473aab9ce3a8b39,18,Female,Right handed,2021-07-26_20h42.43.724,MA Experiment 2,2021.1.2,Win32,60.35003017,0,26,26,30,1,,,,,
0.9955,response_2,,NATIVE,HEROIN,,,,,,SPINACH,APRICOT,long,resources/sound/catchTrials/audio_control_comp_project18.mp3,60fd7e00d473aab9ce3a8b39,18,Female,Right handed,2021-07-26_20h42.43.724,MA Experiment 2,2021.1.2,Win32,60.35003017,,,,,,0,27,27,21,1
2.0943,response_1,longValid,VAPOUR,MICROSCOPE,,,,,,RECEIPT,LIMOUSINE,short,resources/sound/trials/audio_stim_comp40.mp3,60fd7e00d473aab9ce3a8b39,18,Female,Right handed,2021-07-26_20h42.43.724,MA Experiment 2,2021.1.2,Win32,60.35003017,0,27,27,2,1,,,,,
1.7783,response_1,longValid,STATION,PHYSICIAN,,,,,,DAYLIGHT,MATERIAL,short,resources/sound/trials/audio_stim_human42.mp3,60fd7e00d473aab9ce3a8b39,18,Female,Right handed,2021-07-26_20h42.43.724,MA Experiment 2,2021.1.2,Win32,60.35003017,0,28,28,9,1,,,,,
1.7113,response_1,longValid,MEASLES,ENAMEL,,,,,,BRAINSTORM,GREEN NEEDLE,short,resources/sound/trials/audio_stim_original.mp3,60fd7e00d473aab9ce3a8b39,18,Female,Right handed,2021-07-26_20h42.43.724,MA Experiment 2,2021.1.2,Win32,60.35003017,0,29,29,16,1,,,,,
1.8452,response_2,longValid,DOORWAY,INFECTION,,,,,,HARDWARE,OVERCOAT,long,resources/sound/trials/audio_stim_human35.mp3,60fd7e00d473aab9ce3a8b39,18,Female,Right handed,2021-07-26_20h42.43.724,MA Experiment 2,2021.1.2,Win32,60.35003017,0,30,30,25,1,,,,,
1.1952,response_2,,MURDER,CATHEDRAL,,,,,,IRIS,VIOLIN,long,resources/sound/catchTrials/audio_control_comp_project12.mp3,60fd7e00d473aab9ce3a8b39,18,Female,Right handed,2021-07-26_20h42.43.724,MA Experiment 2,2021.1.2,Win32,60.35003017,,,,,,0,3,3,20,1
0.929,response_1,longFoil,VESSEL,CAPITAL,,,,,,WHISTLE,TREASURER,long,resources/sound/trials/audio_stim_comp12.mp3,60fd7e00d473aab9ce3a8b39,18,Female,Right handed,2021-07-26_20h42.43.724,MA Experiment 2,2021.1.2,Win32,60.35003017,0,31,31,20,1,,,,,
1.5451,response_2,shortValid,GIRDLE,INSTRUCTOR,,,,,,HARDWARE,OVERCOAT,short,resources/sound/trials/audio_stim_human35.mp3,60fd7e00d473aab9ce3a8b39,18,Female,Right handed,2021-07-26_20h42.43.724,MA Experiment 2,2021.1.2,Win32,60.35003017,0,32,32,8,1,,,,,
2.5784,response_1,shortValid,HAMMER,POTATO,,,,,,MINER,EMERALD,long,resources/sound/trials/audio_stim_comp6.mp3,60fd7e00d473aab9ce3a8b39,18,Female,Right handed,2021-07-26_20h42.43.724,MA Experiment 2,2021.1.2,Win32,60.35003017,0,33,33,18,1,,,,,
1.6122,response_2,shortValid,DIAL,PROFESSOR,,,,,,SACRED,GALAXY,long,resources/sound/trials/audio_stim_comp1.mp3,60fd7e00d473aab9ce3a8b39,18,Female,Right handed,2021-07-26_20h42.43.724,MA Experiment 2,2021.1.2,Win32,60.35003017,1,0,34,24,1,,,,,
1.0281,response_2,longValid,SCOOTER,ICICLE,,,,,,ROBBER,RATTLESNAKE,short,resources/sound/trials/audio_stim_human64.mp3,60fd7e00d473aab9ce3a8b39,18,Female,Right handed,2021-07-26_20h42.43.724,MA Experiment 2,2021.1.2,Win32,60.35003017,1,1,35,15,1,,,,,
1.4117,response_2,shortFoil,DECOY,PROJECTOR,,,,,,HARDWARE,OVERCOAT,long,resources/sound/trials/audio_stim_human35.mp3,60fd7e00d473aab9ce3a8b39,18,Female,Right handed,2021-07-26_20h42.43.724,MA Experiment 2,2021.1.2,Win32,60.35003017,1,2,36,25,1,,,,,
1.679,response_1,,NOVEL,RETAILER,,,,,,VIOLET,LUBRICANT,short,resources/sound/catchTrials/audio_control_comp_project07.mp3,60fd7e00d473aab9ce3a8b39,18,Female,Right handed,2021-07-26_20h42.43.724,MA Experiment 2,2021.1.2,Win32,60.35003017,,,,,,0,20,20,3,1
1.8286,response_1,shortValid,JURY,GINGERBREAD,,,,,,PAINTER,VEHICLE,long,resources/sound/trials/audio_stim_human47.mp3,60fd7e00d473aab9ce3a8b39,18,Female,Right handed,2021-07-26_20h42.43.724,MA Experiment 2,2021.1.2,Win32,60.35003017,1,3,37,28,1,,,,,
2.0787,response_1,shortValid,UNCLE,DISSECTION,,,,,,WHISTLE,TREASURER,long,resources/sound/trials/audio_stim_comp12.mp3,60fd7e00d473aab9ce3a8b39,18,Female,Right handed,2021-07-26_20h42.43.724,MA Experiment 2,2021.1.2,Win32,60.35003017,1,4,38,20,1,,,,,
1.9293,response_2,longValid,WRITING,COMMITTEE,,,,,,DRIZZLE,CARDINAL,long,resources/sound/trials/audio_stim_comp69.mp3,60fd7e00d473aab9ce3a8b39,18,Female,Right handed,2021-07-26_20h42.43.724,MA Experiment 2,2021.1.2,Win32,60.35003017,1,5,39,17,1,,,,,
1.529,response_1,shortFoil,TWEEZER,APPLIANCE,,,,,,RECEIPT,LIMOUSINE,long,resources/sound/trials/audio_stim_comp40.mp3,60fd7e00d473aab9ce3a8b39,18,Female,Right handed,2021-07-26_20h42.43.724,MA Experiment 2,2021.1.2,Win32,60.35003017,1,6,40,19,1,,,,,
1.6619,response_2,,MEDICINE,ATTENDANT,,,,,,BORDER,ALGEBRA,long,resources/sound/catchTrials/audio_control_comp_project00.mp3,60fd7e00d473aab9ce3a8b39,18,Female,Right handed,2021-07-26_20h42.43.724,MA Experiment 2,2021.1.2,Win32,60.35003017,,,,,,0,0,0,16,1
1.2128,response_2,longValid,FOREARM,GRASSHOPPER,,,,,,CONCRETE,ENEMY,long,resources/sound/trials/audio_stim_human67.mp3,60fd7e00d473aab9ce3a8b39,18,Female,Right handed,2021-07-26_20h42.43.724,MA Experiment 2,2021.1.2,Win32,60.35003017,1,7,41,27,1,,,,,
1.1286,response_2,shortFoil,CABIN,ACROBAT,,,,,,ATHLETE,IVORY,short,resources/sound/trials/audio_stim_comp57.mp3,60fd7e00d473aab9ce3a8b39,18,Female,Right handed,2021-07-26_20h42.43.724,MA Experiment 2,2021.1.2,Win32,60.35003017,1,8,42,5,1,,,,,
1.7958,response_2,longFoil,PICTURE,ABDOMEN,,,,,,BRAINSTORM,GREEN NEEDLE,long,resources/sound/trials/audio_stim_original.mp3,60fd7e00d473aab9ce3a8b39,18,Female,Right handed,2021-07-26_20h42.43.724,MA Experiment 2,2021.1.2,Win32,60.35003017,1,9,43,33,1,,,,,
0.9326,response_1,longValid,FAIRY,FISHERMAN,,,,,,MINER,EMERALD,long,resources/sound/trials/audio_stim_human6.mp3,60fd7e00d473aab9ce3a8b39,18,Female,Right handed,2021-07-26_20h42.43.724,MA Experiment 2,2021.1.2,Win32,60.35003017,1,10,44,30,1,,,,,
1.6111,response_2,,CANTEEN,FURNITURE,,,,,,HOBBY,COLONY,short,resources/sound/catchTrials/audio_control_human_project04.mp3,60fd7e00d473aab9ce3a8b39,18,Female,Right handed,2021-07-26_20h42.43.724,MA Experiment 2,2021.1.2,Win32,60.35003017,,,,,,0,14,14,11,1
1.3121,response_2,longFoil,LIQUID,FAMILY,,,,,,RUBBER,PROPERTY,long,resources/sound/trials/audio_stim_human0.mp3,60fd7e00d473aab9ce3a8b39,18,Female,Right handed,2021-07-26_20h42.43.724,MA Experiment 2,2021.1.2,Win32,60.35003017,1,11,45,29,1,,,,,
0.8422,response_2,longValid,CURFEW,FIREWOOD,,,,,,MINER,EMERALD,short,resources/sound/trials/audio_stim_human6.mp3,60fd7e00d473aab9ce3a8b39,18,Female,Right handed,2021-07-26_20h42.43.724,MA Experiment 2,2021.1.2,Win32,60.35003017,1,12,46,13,1,,,,,
1.5622,response_1,shortValid,WIRE,ORNAMENT,,,,,,RUBBER,PROPERTY,short,resources/sound/trials/audio_stim_human0.mp3,60fd7e00d473aab9ce3a8b39,18,Female,Right handed,2021-07-26_20h42.43.724,MA Experiment 2,2021.1.2,Win32,60.35003017,1,13,47,12,1,,,,,
1.3119,response_1,shortValid,BEETLE,JANITOR,,,,,,BRAINSTORM,GREEN NEEDLE,short,resources/sound/trials/audio_stim_original.mp3,60fd7e00d473aab9ce3a8b39,18,Female,Right handed,2021-07-26_20h42.43.724,MA Experiment 2,2021.1.2,Win32,60.35003017,1,14,48,16,1,,,,,
0.901,response_1,,EVENING,CONVENTION,,,,,,VIOLET,LUBRICANT,long,resources/sound/catchTrials/audio_control_comp_project07.mp3,60fd7e00d473aab9ce3a8b39,18,Female,Right handed,2021-07-26_20h42.43.724,MA Experiment 2,2021.1.2,Win32,60.35003017,,,,,,0,26,26,19,1
1.613,response_1,longFoil,VILLAGE,ADMIRAL,,,,,,SACRED,GALAXY,short,resources/sound/trials/audio_stim_comp1.mp3,60fd7e00d473aab9ce3a8b39,18,Female,Right handed,2021-07-26_20h42.43.724,MA Experiment 2,2021.1.2,Win32,60.35003017,1,15,49,7,1,,,,,
1.1667,response_1,shortFoil,HAMSTER,INSTRUMENT,,,,,,DAYLIGHT,MATERIAL,long,resources/sound/trials/audio_stim_human42.mp3,60fd7e00d473aab9ce3a8b39,18,Female,Right handed,2021-07-26_20h42.43.724,MA Experiment 2,2021.1.2,Win32,60.35003017,1,16,50,26,1,,,,,
2.463,response_2,longFoil,SHEEPSKIN,MONUMENT,,,,,,WORKER,VISITOR,short,resources/sound/trials/audio_stim_comp17.mp3,60fd7e00d473aab9ce3a8b39,18,Female,Right handed,2021-07-26_20h42.43.724,MA Experiment 2,2021.1.2,Win32,60.35003017,1,17,51,6,1,,,,,
2.9786,response_2,shortFoil,MOONLIGHT,MESSENGER,,,,,,MARBLE,CUSTOMER,long,resources/sound/trials/audio_stim_comp65.mp3,60fd7e00d473aab9ce3a8b39,18,Female,Right handed,2021-07-26_20h42.43.724,MA Experiment 2,2021.1.2,Win32,60.35003017,1,18,52,21,1,,,,,
2.5299,response_2,,POLO,POLIO,,,,,,IRIS,VIOLIN,long,resources/sound/catchTrials/audio_control_human_project12.mp3,60fd7e00d473aab9ce3a8b39,18,Female,Right handed,2021-07-26_20h42.43.724,MA Experiment 2,2021.1.2,Win32,60.35003017,,,,,,0,28,28,24,1
2.713,response_1,shortFoil,TUMBLE,AVENUE,,,,,,WHISTLE,TREASURER,short,resources/sound/trials/audio_stim_comp12.mp3,60fd7e00d473aab9ce3a8b39,18,Female,Right handed,2021-07-26_20h42.43.724,MA Experiment 2,2021.1.2,Win32,60.35003017,1,19,53,3,1,,,,,
1.4952,response_1,shortValid,PIANO,GORILLA,,,,,,PAINTER,VEHICLE,short,resources/sound/trials/audio_stim_human47.mp3,60fd7e00d473aab9ce3a8b39,18,Female,Right handed,2021-07-26_20h42.43.724,MA Experiment 2,2021.1.2,Win32,60.35003017,1,20,54,11,1,,,,,
0.9787,response_2,longValid,NURSERY,FACTORY,,,,,,MINER,EMERALD,long,resources/sound/trials/audio_stim_comp6.mp3,60fd7e00d473aab9ce3a8b39,18,Female,Right handed,2021-07-26_20h42.43.724,MA Experiment 2,2021.1.2,Win32,60.35003017,1,21,55,18,1,,,,,
1.1641,response_2,shortValid,ANCHOR,CITIZEN,,,,,,MINER,EMERALD,short,resources/sound/trials/audio_stim_comp6.mp3,60fd7e00d473aab9ce3a8b39,18,Female,Right handed,2021-07-26_20h42.43.724,MA Experiment 2,2021.1.2,Win32,60.35003017,1,22,56,1,1,,,,,
2.5503,response_1,,MURAL,TANGERINE,,,,,,VIOLET,LUBRICANT,long,resources/sound/catchTrials/audio_control_human_project07.mp3,60fd7e00d473aab9ce3a8b39,18,Female,Right handed,2021-07-26_20h42.43.724,MA Experiment 2,2021.1.2,Win32,60.35003017,,,,,,0,5,5,28,1
1.6955,response_2,shortFoil,CRYSTAL,SETTLEMENT,,,,,,ROBBER,RATTLESNAKE,long,resources/sound/trials/audio_stim_human64.mp3,60fd7e00d473aab9ce3a8b39,18,Female,Right handed,2021-07-26_20h42.43.724,MA Experiment 2,2021.1.2,Win32,60.35003017,1,23,57,32,1,,,,,
1.3452,response_1,longFoil,SHOULDER,HANDKERCHIEF,,,,,,DRIZZLE,CARDINAL,short,resources/sound/trials/audio_stim_comp69.mp3,60fd7e00d473aab9ce3a8b39,18,Female,Right handed,2021-07-26_20h42.43.724,MA Experiment 2,2021.1.2,Win32,60.35003017,1,24,58,0,1,,,,,
0.8629,response_1,longFoil,PIPING,CABINET,,,,,,DAYLIGHT,MATERIAL,short,resources/sound/trials/audio_stim_human42.mp3,60fd7e00d473aab9ce3a8b39,18,Female,Right handed,2021-07-26_20h42.43.724,MA Experiment 2,2021.1.2,Win32,60.35003017,1,25,59,9,1,,,,,
2.668,response_2,longFoil,RUSTY,NEIGHBOURHOOD,,,,,,PARTY,SANCTUARY,long,resources/sound/trials/audio_stim_human50.mp3,60fd7e00d473aab9ce3a8b39,18,Female,Right handed,2021-07-26_20h42.43.724,MA Experiment 2,2021.1.2,Win32,60.35003017,1,26,60,31,1,,,,,
1.3954,response_2,,NECKLACE,INTERVIEW,,,,,,IRIS,VIOLIN,short,resources/sound/catchTrials/audio_control_human_project12.mp3,60fd7e00d473aab9ce3a8b39,18,Female,Right handed,2021-07-26_20h42.43.724,MA Experiment 2,2021.1.2,Win32,60.35003017,,,,,,0,9,9,8,1
1.3962,response_1,longFoil,WALRUS,REFEREE,,,,,,ATHLETE,IVORY,long,resources/sound/trials/audio_stim_comp57.mp3,60fd7e00d473aab9ce3a8b39,18,Female,Right handed,2021-07-26_20h42.43.724,MA Experiment 2,2021.1.2,Win32,60.35003017,1,27,61,22,1,,,,,
1.1458,response_1,shortFoil,EARTHWORM,CIGARETTE,,,,,,RECEIPT,LIMOUSINE,short,resources/sound/trials/audio_stim_comp40.mp3,60fd7e00d473aab9ce3a8b39,18,Female,Right handed,2021-07-26_20h42.43.724,MA Experiment 2,2021.1.2,Win32,60.35003017,1,28,62,2,1,,,,,
0.7619,response_2,shortValid,NAPKIN,TEMPERATURE,,,,,,WORKER,VISITOR,long,resources/sound/trials/audio_stim_comp17.mp3,60fd7e00d473aab9ce3a8b39,18,Female,Right handed,2021-07-26_20h42.43.724,MA Experiment 2,2021.1.2,Win32,60.35003017,1,29,63,23,1,,,,,
1.495,response_1,longFoil,ACRE,GALLERY,,,,,,CONCRETE,ENEMY,short,resources/sound/trials/audio_stim_human67.mp3,60fd7e00d473aab9ce3a8b39,18,Female,Right handed,2021-07-26_20h42.43.724,MA Experiment 2,2021.1.2,Win32,60.35003017,1,30,64,10,1,,,,,
1.2789,response_2,,PERSON,MEDICINE,,,,,,CORNER,ENGINEER,long,resources/sound/catchTrials/audio_control_comp_project14.mp3,60fd7e00d473aab9ce3a8b39,18,Female,Right handed,2021-07-26_20h42.43.724,MA Experiment 2,2021.1.2,Win32,60.35003017,,,,,,0,7,7,17,1
0.4952,response_1,shortFoil,TEMPLE,LEMONADE,,,,,,MARBLE,CUSTOMER,short,resources/sound/trials/audio_stim_comp65.mp3,60fd7e00d473aab9ce3a8b39,18,Female,Right handed,2021-07-26_20h42.43.724,MA Experiment 2,2021.1.2,Win32,60.35003017,1,31,65,4,1,,,,,
1.9444,response_1,shortFoil,OFFICE,MECHANIC,,,,,,HARDWARE,OVERCOAT,short,resources/sound/trials/audio_stim_human35.mp3,60fd7e00d473aab9ce3a8b39,18,Female,Right handed,2021-07-26_20h42.43.724,MA Experiment 2,2021.1.2,Win32,60.35003017,1,32,66,8,1,,,,,
1.2115,response_1,shortValid,CHIPMUNK,VINEGAR,,,,,,PARTY,SANCTUARY,short,resources/sound/trials/audio_stim_human50.mp3,60fd7e00d473aab9ce3a8b39,18,Female,Right handed,2021-07-26_20h42.43.724,MA Experiment 2,2021.1.2,Win32,60.35003017,1,33,67,14,1,,,,,
1.8627,response_2,longFoil,MUSCLE,ENVELOPE,,,,,,ATHLETE,IVORY,short,resources/sound/trials/audio_stim_comp57.mp3,60fd7e00d473aab9ce3a8b39,18,Female,Right handed,2021-07-26_20h42.43.724,MA Experiment 2,2021.1.2,Win32,60.35003017,2,0,68,5,1,,,,,
1.1289,response_1,longValid,OLIVE,CANDLELIGHT,,,,,,MINER,EMERALD,short,resources/sound/trials/audio_stim_comp6.mp3,60fd7e00d473aab9ce3a8b39,18,Female,Right handed,2021-07-26_20h42.43.724,MA Experiment 2,2021.1.2,Win32,60.35003017,2,1,69,1,1,,,,,
1.2954,response_2,shortValid,VAPOUR,CHOCOLATE,,,,,,BRAINSTORM,GREEN NEEDLE,long,resources/sound/trials/audio_stim_original.mp3,60fd7e00d473aab9ce3a8b39,18,Female,Right handed,2021-07-26_20h42.43.724,MA Experiment 2,2021.1.2,Win32,60.35003017,2,2,70,33,1,,,,,
1.3787,response_2,,SHOULDER,DESTROYER,,,,,,NAVY,RECTANGLE,long,resources/sound/catchTrials/audio_control_human_project06.mp3,60fd7e00d473aab9ce3a8b39,18,Female,Right handed,2021-07-26_20h42.43.724,MA Experiment 2,2021.1.2,Win32,60.35003017,,,,,,0,8,8,30,1
1.3791,response_2,shortFoil,SCOOTER,GINGERBREAD,,,,,,WORKER,VISITOR,long,resources/sound/trials/audio_stim_comp17.mp3,60fd7e00d473aab9ce3a8b39,18,Female,Right handed,2021-07-26_20h42.43.724,MA Experiment 2,2021.1.2,Win32,60.35003017,2,3,71,23,1,,,,,
0.546,response_1,longFoil,PERSON,ATHLETICS,,,,,,DRIZZLE,CARDINAL,long,resources/sound/trials/audio_stim_comp69.mp3,60fd7e00d473aab9ce3a8b39,18,Female,Right handed,2021-07-26_20h42.43.724,MA Experiment 2,2021.1.2,Win32,60.35003017,2,4,72,17,1,,,,,
1.6122,response_1,longValid,CAPTAIN,CINNAMON,,,,,,DAYLIGHT,MATERIAL,long,resources/sound/trials/audio_stim_human42.mp3,60fd7e00d473aab9ce3a8b39,18,Female,Right handed,2021-07-26_20h42.43.724,MA Experiment 2,2021.1.2,Win32,60.35003017,2,5,73,26,1,,,,,
1.763,response_2,shortValid,NECKLACE,BEVERAGE,,,,,,DAYLIGHT,MATERIAL,short,resources/sound/trials/audio_stim_human42.mp3,60fd7e00d473aab9ce3a8b39,18,Female,Right handed,2021-07-26_20h42.43.724,MA Experiment 2,2021.1.2,Win32,60.35003017,2,6,74,9,1,,,,,
0.8956,response_2,,RABBI,HURRICANE,,,,,,HOBBY,COLONY,short,resources/sound/catchTrials/audio_control_comp_project04.mp3,60fd7e00d473aab9ce3a8b39,18,Female,Right handed,2021-07-26_20h42.43.724,MA Experiment 2,2021.1.2,Win32,60.35003017,,,,,,0,10,10,2,1
0.6129,response_1,shortValid,SINGER,HOSPITAL,,,,,,MARBLE,CUSTOMER,short,resources/sound/trials/audio_stim_comp65.mp3,60fd7e00d473aab9ce3a8b39,18,Female,Right handed,2021-07-26_20h42.43.724,MA Experiment 2,2021.1.2,Win32,60.35003017,2,7,75,4,1,,,,,
1.2457,response_1,shortFoil,FOREARM,MEDICINE,,,,,,ATHLETE,IVORY,long,resources/sound/trials/audio_stim_comp57.mp3,60fd7e00d473aab9ce3a8b39,18,Female,Right handed,2021-07-26_20h42.43.724,MA Experiment 2,2021.1.2,Win32,60.35003017,2,8,76,22,1,,,,,
2.3467,response_2,shortValid,OFFICE,PROFESSOR,,,,,,MARBLE,CUSTOMER,long,resources/sound/trials/audio_stim_comp65.mp3,60fd7e00d473aab9ce3a8b39,18,Female,Right handed,2021-07-26_20h42.43.724,MA Experiment 2,2021.1.2,Win32,60.35003017,2,9,77,21,1,,,,,
1.7297,response_1,longFoil,FAIRY,AVENUE,,,,,,RECEIPT,LIMOUSINE,long,resources/sound/trials/audio_stim_comp40.mp3,60fd7e00d473aab9ce3a8b39,18,Female,Right handed,2021-07-26_20h42.43.724,MA Experiment 2,2021.1.2,Win32,60.35003017,2,10,78,19,1,,,,,
0.9119,response_2,,HAMMER,PROJECTOR,,,,,,ICY,JITTERBUG,short,resources/sound/catchTrials/audio_control_comp_project08.mp3,60fd7e00d473aab9ce3a8b39,18,Female,Right handed,2021-07-26_20h42.43.724,MA Experiment 2,2021.1.2,Win32,60.35003017,,,,,,0,6,6,7,1
1.279,response_1,longFoil,WAFER,FISHERMAN,,,,,,SACRED,GALAXY,long,resources/sound/trials/audio_stim_comp1.mp3,60fd7e00d473aab9ce3a8b39,18,Female,Right handed,2021-07-26_20h42.43.724,MA Experiment 2,2021.1.2,Win32,60.35003017,2,11,79,24,1,,,,,
1.1113,response_2,longValid,SADDLE,PROPELLER,,,,,,PARTY,SANCTUARY,long,resources/sound/trials/audio_stim_human50.mp3,60fd7e00d473aab9ce3a8b39,18,Female,Right handed,2021-07-26_20h42.43.724,MA Experiment 2,2021.1.2,Win32,60.35003017,2,12,80,31,1,,,,,
1.5795,response_1,shortValid,MEASLES,CORRIDOR,,,,,,HARDWARE,OVERCOAT,long,resources/sound/trials/audio_stim_human35.mp3,60fd7e00d473aab9ce3a8b39,18,Female,Right handed,2021-07-26_20h42.43.724,MA Experiment 2,2021.1.2,Win32,60.35003017,2,13,81,25,1,,,,,
0.5788,response_4,longFoil,BURNER,MECHANIC,,,,,,MINER,EMERALD,long,resources/sound/trials/audio_stim_comp6.mp3,60fd7e00d473aab9ce3a8b39,18,Female,Right handed,2021-07-26_20h42.43.724,MA Experiment 2,2021.1.2,Win32,60.35003017,2,14,82,18,1,,,,,
1.863,response_2,,NURSERY,CAMERA,,,,,,JOURNAL,ROBBERY,long,resources/sound/catchTrials/audio_control_human_project02.mp3,60fd7e00d473aab9ce3a8b39,18,Female,Right handed,2021-07-26_20h42.43.724,MA Experiment 2,2021.1.2,Win32,60.35003017,,,,,,0,31,31,29,1
1.1789,response_2,shortValid,PICTURE,SETTLEMENT,,,,,,CONCRETE,ENEMY,short,resources/sound/trials/audio_stim_human67.mp3,60fd7e00d473aab9ce3a8b39,18,Female,Right handed,2021-07-26_20h42.43.724,MA Experiment 2,2021.1.2,Win32,60.35003017,2,15,83,10,1,,,,,
1.3128,response_1,longValid,VILLAGE,CATHEDRAL,,,,,,RUBBER,PROPERTY,short,resources/sound/trials/audio_stim_human0.mp3,60fd7e00d473aab9ce3a8b39,18,Female,Right handed,2021-07-26_20h42.43.724,MA Experiment 2,2021.1.2,Win32,60.35003017,2,16,84,12,1,,,,,
1.5115,response_2,shortValid,EVENING,AMBULANCE,,,,,,ROBBER,RATTLESNAKE,short,resources/sound/trials/audio_stim_human64.mp3,60fd7e00d473aab9ce3a8b39,18,Female,Right handed,2021-07-26_20h42.43.724,MA Experiment 2,2021.1.2,Win32,60.35003017,2,17,85,15,1,,,,,
1.6455,response_2,longFoil,SODA,POTATO,,,,,,MINER,EMERALD,long,resources/sound/trials/audio_stim_human6.mp3,60fd7e00d473aab9ce3a8b39,18,Female,Right handed,2021-07-26_20h42.43.724,MA Experiment 2,2021.1.2,Win32,60.35003017,2,18,86,30,1,,,,,
1.6119,response_2,,LEADER,ASBESTOS,,,,,,BORDER,ALGEBRA,short,resources/sound/catchTrials/audio_control_comp_project00.mp3,60fd7e00d473aab9ce3a8b39,18,Female,Right handed,2021-07-26_20h42.43.724,MA Experiment 2,2021.1.2,Win32,60.35003017,,,,,,0,17,17,0,1
1.045,response_1,shortFoil,HARBOUR,INTERVIEW,,,,,,CONCRETE,ENEMY,long,resources/sound/trials/audio_stim_human67.mp3,60fd7e00d473aab9ce3a8b39,18,Female,Right handed,2021-07-26_20h42.43.724,MA Experiment 2,2021.1.2,Win32,60.35003017,2,19,87,27,1,,,,,
1.2289,response_2,shortFoil,MORNING,GORILLA,,,,,,WORKER,VISITOR,short,resources/sound/trials/audio_stim_comp17.mp3,60fd7e00d473aab9ce3a8b39,18,Female,Right handed,2021-07-26_20h42.43.724,MA Experiment 2,2021.1.2,Win32,60.35003017,2,20,88,6,1,,,,,
1.78,response_1,longValid,SEGMENT,ALPHABET,,,,,,PAINTER,VEHICLE,long,resources/sound/trials/audio_stim_human47.mp3,60fd7e00d473aab9ce3a8b39,18,Female,Right handed,2021-07-26_20h42.43.724,MA Experiment 2,2021.1.2,Win32,60.35003017,2,21,89,28,1,,,,,
1.5123,response_1,longValid,BISHOP,POLICEMAN,,,,,,HARDWARE,OVERCOAT,short,resources/sound/trials/audio_stim_human35.mp3,60fd7e00d473aab9ce3a8b39,18,Female,Right handed,2021-07-26_20h42.43.724,MA Experiment 2,2021.1.2,Win32,60.35003017,2,22,90,8,1,,,,,
1.9625,response_2,,CANTEEN,INJURY,,,,,,HOBBY,COLONY,long,resources/sound/catchTrials/audio_control_comp_project04.mp3,60fd7e00d473aab9ce3a8b39,18,Female,Right handed,2021-07-26_20h42.43.724,MA Experiment 2,2021.1.2,Win32,60.35003017,,,,,,0,29,29,18,1
1.3624,response_2,longValid,BUTTER,INDUSTRY,,,,,,ROBBER,RATTLESNAKE,long,resources/sound/trials/audio_stim_human64.mp3,60fd7e00d473aab9ce3a8b39,18,Female,Right handed,2021-07-26_20h42.43.724,MA Experiment 2,2021.1.2,Win32,60.35003017,2,23,91,32,1,,,,,
1.4951,response_1,shortFoil,MOONLIGHT,SAXOPHONE,,,,,,WHISTLE,TREASURER,long,resources/sound/trials/audio_stim_comp12.mp3,60fd7e00d473aab9ce3a8b39,18,Female,Right handed,2021-07-26_20h42.43.724,MA Experiment 2,2021.1.2,Win32,60.35003017,2,24,92,20,1,,,,,
1.4457,response_1,shortFoil,CHIPMUNK,CROCODILE,,,,,,SACRED,GALAXY,short,resources/sound/trials/audio_stim_comp1.mp3,60fd7e00d473aab9ce3a8b39,18,Female,Right handed,2021-07-26_20h42.43.724,MA Experiment 2,2021.1.2,Win32,60.35003017,2,25,93,7,1,,,,,
1.8959,response_1,shortFoil,GIRDLE,LECTURER,,,,,,PAINTER,VEHICLE,short,resources/sound/trials/audio_stim_human47.mp3,60fd7e00d473aab9ce3a8b39,18,Female,Right handed,2021-07-26_20h42.43.724,MA Experiment 2,2021.1.2,Win32,60.35003017,2,26,94,11,1,,,,,
1.2118,response_1,,MISTRESS,GOVERNMENT,,,,,,JUGGLER,DANDELION,short,resources/sound/catchTrials/audio_control_human_project09.mp3,60fd7e00d473aab9ce3a8b39,18,Female,Right handed,2021-07-26_20h42.43.724,MA Experiment 2,2021.1.2,Win32,60.35003017,,,,,,0,24,24,15,1
1.7461,response_1,shortValid,LIGHTNING,INSTRUCTOR,,,,,,RUBBER,PROPERTY,long,resources/sound/trials/audio_stim_human0.mp3,60fd7e00d473aab9ce3a8b39,18,Female,Right handed,2021-07-26_20h42.43.724,MA Experiment 2,2021.1.2,Win32,60.35003017,2,27,95,29,1,,,,,
1.0126,response_1,longFoil,PATIENT,POLIO,,,,,,RECEIPT,LIMOUSINE,short,resources/sound/trials/audio_stim_comp40.mp3,60fd7e00d473aab9ce3a8b39,18,Female,Right handed,2021-07-26_20h42.43.724,MA Experiment 2,2021.1.2,Win32,60.35003017,2,28,96,2,1,,,,,
1.0624,response_2,longFoil,SOFA,OXYGEN,,,,,,PARTY,SANCTUARY,short,resources/sound/trials/audio_stim_human50.mp3,60fd7e00d473aab9ce3a8b39,18,Female,Right handed,2021-07-26_20h42.43.724,MA Experiment 2,2021.1.2,Win32,60.35003017,2,29,97,14,1,,,,,
1.2786,response_2,shortFoil,DECOY,REFEREE,,,,,,BRAINSTORM,GREEN NEEDLE,short,resources/sound/trials/audio_stim_original.mp3,60fd7e00d473aab9ce3a8b39,18,Female,Right handed,2021-07-26_20h42.43.724,MA Experiment 2,2021.1.2,Win32,60.35003017,2,30,98,16,1,,,,,
1.4124,response_2,,MEDICINE,AMMONIA,,,,,,ICY,JITTERBUG,long,resources/sound/catchTrials/audio_control_comp_project08.mp3,60fd7e00d473aab9ce3a8b39,18,Female,Right handed,2021-07-26_20h42.43.724,MA Experiment 2,2021.1.2,Win32,60.35003017,,,,,,0,19,19,23,1
0.912,response_2,longValid,KETTLE,ABDOMEN,,,,,,DRIZZLE,CARDINAL,short,resources/sound/trials/audio_stim_comp69.mp3,60fd7e00d473aab9ce3a8b39,18,Female,Right handed,2021-07-26_20h42.43.724,MA Experiment 2,2021.1.2,Win32,60.35003017,2,31,99,0,1,,,,,
1.6118,response_2,shortFoil,WRITING,FACTORY,,,,,,MINER,EMERALD,short,resources/sound/trials/audio_stim_human6.mp3,60fd7e00d473aab9ce3a8b39,18,Female,Right handed,2021-07-26_20h42.43.724,MA Experiment 2,2021.1.2,Win32,60.35003017,2,32,100,13,1,,,,,
1.6132,response_1,longFoil,STOCKING,MERCURY,,,,,,WHISTLE,TREASURER,short,resources/sound/trials/audio_stim_comp12.mp3,60fd7e00d473aab9ce3a8b39,18,Female,Right handed,2021-07-26_20h42.43.724,MA Experiment 2,2021.1.2,Win32,60.35003017,2,33,101,3,1,,,,,
1.4622,response_2,shortValid,TORTURE,MINISTER,,,,,,MINER,EMERALD,short,resources/sound/trials/audio_stim_human6.mp3,60fd7e00d473aab9ce3a8b39,18,Female,Right handed,2021-07-26_20h42.43.724,MA Experiment 2,2021.1.2,Win32,60.35003017,3,0,102,13,1,,,,,
1.7076,response_1,longValid,INVOICE,ACROBAT,,,,,,WHISTLE,TREASURER,long,resources/sound/trials/audio_stim_comp12.mp3,60fd7e00d473aab9ce3a8b39,18,Female,Right handed,2021-07-26_20h42.43.724,MA Experiment 2,2021.1.2,Win32,60.35003017,3,1,103,20,1,,,,,
2.6127,response_2,longValid,PRINCESS,HONEYMOON,,,,,,MARBLE,CUSTOMER,long,resources/sound/trials/audio_stim_comp65.mp3,60fd7e00d473aab9ce3a8b39,18,Female,Right handed,2021-07-26_20h42.43.724,MA Experiment 2,2021.1.2,Win32,60.35003017,3,2,104,21,1,,,,,
1.4626,response_2,,PODIUM,APPLIANCE,,,,,,HOBBY,COLONY,long,resources/sound/catchTrials/audio_control_human_project04.mp3,60fd7e00d473aab9ce3a8b39,18,Female,Right handed,2021-07-26_20h42.43.724,MA Experiment 2,2021.1.2,Win32,60.35003017,,,,,,0,18,18,27,1
1.4457,response_1,shortFoil,VESSEL,CAPITAL,,,,,,MINER,EMERALD,short,resources/sound/trials/audio_stim_comp6.mp3,60fd7e00d473aab9ce3a8b39,18,Female,Right handed,2021-07-26_20h42.43.724,MA Experiment 2,2021.1.2,Win32,60.35003017,3,3,105,1,1,,,,,
1.396,response_1,longValid,LOBSTER,MONUMENT,,,,,,PAINTER,VEHICLE,short,resources/sound/trials/audio_stim_human47.mp3,60fd7e00d473aab9ce3a8b39,18,Female,Right handed,2021-07-26_20h42.43.724,MA Experiment 2,2021.1.2,Win32,60.35003017,3,4,106,11,1,,,,,
1.4781,response_1,longValid,WALRUS,STRAWBERRY,,,,,,SACRED,GALAXY,long,resources/sound/trials/audio_stim_comp1.mp3,60fd7e00d473aab9ce3a8b39,18,Female,Right handed,2021-07-26_20h42.43.724,MA Experiment 2,2021.1.2,Win32,60.35003017,3,5,107,24,1,,,,,
1.1793,response_2,longValid,NOVEL,TANGERINE,,,,,,BRAINSTORM,GREEN NEEDLE,long,resources/sound/trials/audio_stim_original.mp3,60fd7e00d473aab9ce3a8b39,18,Female,Right handed,2021-07-26_20h42.43.724,MA Experiment 2,2021.1.2,Win32,60.35003017,3,6,108,33,1,,,,,
1.4121,response_1,,NATIVE,FAMILY,,,,,,JUGGLER,DANDELION,long,resources/sound/catchTrials/audio_control_human_project09.mp3,60fd7e00d473aab9ce3a8b39,18,Female,Right handed,2021-07-26_20h42.43.724,MA Experiment 2,2021.1.2,Win32,60.35003017,,,,,,0,22,22,31,1
1.2938,response_1,shortValid,DUEL,JANITOR,,,,,,RECEIPT,LIMOUSINE,short,resources/sound/trials/audio_stim_comp40.mp3,60fd7e00d473aab9ce3a8b39,18,Female,Right handed,2021-07-26_20h42.43.724,MA Experiment 2,2021.1.2,Win32,60.35003017,3,7,109,2,1,,,,,
1.4956,response_2,longFoil,UNCLE,ADMIRAL,,,,,,ROBBER,RATTLESNAKE,short,resources/sound/trials/audio_stim_human64.mp3,60fd7e00d473aab9ce3a8b39,18,Female,Right handed,2021-07-26_20h42.43.724,MA Experiment 2,2021.1.2,Win32,60.35003017,3,8,110,15,1,,,,,
1.4573,response_2,longValid,VALLEY,HANDKERCHIEF,,,,,,CONCRETE,ENEMY,short,resources/sound/trials/audio_stim_human67.mp3,60fd7e00d473aab9ce3a8b39,18,Female,Right handed,2021-07-26_20h42.43.724,MA Experiment 2,2021.1.2,Win32,60.35003017,3,9,111,10,1,,,,,
1.5794,response_1,shortValid,HAMSTER,NEWSPAPER,,,,,,PARTY,SANCTUARY,long,resources/sound/trials/audio_stim_human50.mp3,60fd7e00d473aab9ce3a8b39,18,Female,Right handed,2021-07-26_20h42.43.724,MA Experiment 2,2021.1.2,Win32,60.35003017,3,10,112,31,1,,,,,
1.4793,response_2,,DANCER,CABINET,,,,,,CORNER,ENGINEER,long,resources/sound/catchTrials/audio_control_human_project14.mp3,60fd7e00d473aab9ce3a8b39,18,Female,Right handed,2021-07-26_20h42.43.724,MA Experiment 2,2021.1.2,Win32,60.35003017,,,,,,0,12,12,26,1
1.4119,response_1,longValid,INCOME,ANTIQUE,,,,,,WHISTLE,TREASURER,short,resources/sound/trials/audio_stim_comp12.mp3,60fd7e00d473aab9ce3a8b39,18,Female,Right handed,2021-07-26_20h42.43.724,MA Experiment 2,2021.1.2,Win32,60.35003017,3,11,113,3,1,,,,,
1.4957,response_2,longFoil,ANCHOR,MOSQUITO,,,,,,HARDWARE,OVERCOAT,short,resources/sound/trials/audio_stim_human35.mp3,60fd7e00d473aab9ce3a8b39,18,Female,Right handed,2021-07-26_20h42.43.724,MA Experiment 2,2021.1.2,Win32,60.35003017,3,12,114,8,1,,,,,
2.0129,response_2,longFoil,TUMBLE,HEADQUARTERS,,,,,,MARBLE,CUSTOMER,short,resources/sound/trials/audio_stim_comp65.mp3,60fd7e00d473aab9ce3a8b39,18,Female,Right handed,2021-07-26_20h42.43.724,MA Experiment 2,2021.1.2,Win32,60.35003017,3,13,115,4,1,,,,,
2.2804,response_2,longFoil,SHEEPSKIN,COMMITTEE,,,,,,DAYLIGHT,MATERIAL,long,resources/sound/trials/audio_stim_human42.mp3,60fd7e00d473aab9ce3a8b39,18,Female,Right handed,2021-07-26_20h42.43.724,MA Experiment 2,2021.1.2,Win32,60.35003017,3,14,116,26,1,,,,,
1.1787,response_2,,TRAITOR,CITIZEN,,,,,,IRIS,VIOLIN,short,resources/sound/catchTrials/audio_control_comp_project12.mp3,60fd7e00d473aab9ce3a8b39,18,Female,Right handed,2021-07-26_20h42.43.724,MA Experiment 2,2021.1.2,Win32,60.35003017,,,,,,0,4,4,4,1
1.8129,response_1,shortFoil,CABIN,RETAILER,,,,,,RUBBER,PROPERTY,short,resources/sound/trials/audio_stim_human0.mp3,60fd7e00d473aab9ce3a8b39,18,Female,Right handed,2021-07-26_20h42.43.724,MA Experiment 2,2021.1.2,Win32,60.35003017,3,15,117,12,1,,,,,
1.2941,response_2,shortFoil,KENNEL,LEMONADE,,,,,,DAYLIGHT,MATERIAL,short,resources/sound/trials/audio_stim_human42.mp3,60fd7e00d473aab9ce3a8b39,18,Female,Right handed,2021-07-26_20h42.43.724,MA Experiment 2,2021.1.2,Win32,60.35003017,3,16,118,9,1,,,,,
1.8974,response_1,shortValid,WIRE,SPECIALIST,,,,,,DRIZZLE,CARDINAL,long,resources/sound/trials/audio_stim_comp69.mp3,60fd7e00d473aab9ce3a8b39,18,Female,Right handed,2021-07-26_20h42.43.724,MA Experiment 2,2021.1.2,Win32,60.35003017,3,17,119,17,1,,,,,
1.0793,response_2,shortValid,DOORWAY,VINEGAR,,,,,,CONCRETE,ENEMY,long,resources/sound/trials/audio_stim_human67.mp3,60fd7e00d473aab9ce3a8b39,18,Female,Right handed,2021-07-26_20h42.43.724,MA Experiment 2,2021.1.2,Win32,60.35003017,3,18,120,27,1,,,,,
1.3456,response_2,,CEREAL,INSTRUMENT,,,,,,NAVY,RECTANGLE,short,resources/sound/catchTrials/audio_control_human_project06.mp3,60fd7e00d473aab9ce3a8b39,18,Female,Right handed,2021-07-26_20h42.43.724,MA Experiment 2,2021.1.2,Win32,60.35003017,,,,,,0,23,23,14,1
1.4941,response_2,longValid,BERRY,HEROIN,,,,,,PARTY,SANCTUARY,short,resources/sound/trials/audio_stim_human50.mp3,60fd7e00d473aab9ce3a8b39,18,Female,Right handed,2021-07-26_20h42.43.724,MA Experiment 2,2021.1.2,Win32,60.35003017,3,19,121,14,1,,,,,
1.8473,response_2,longFoil,NAPKIN,BUTTERFLY,,,,,,BRAINSTORM,GREEN NEEDLE,short,resources/sound/trials/audio_stim_original.mp3,60fd7e00d473aab9ce3a8b39,18,Female,Right handed,2021-07-26_20h42.43.724,MA Experiment 2,2021.1.2,Win32,60.35003017,3,20,122,16,1,,,,,
1.194,response_1,shortValid,CIGAR,ICICLE,,,,,,ATHLETE,IVORY,long,resources/sound/trials/audio_stim_comp57.mp3,60fd7e00d473aab9ce3a8b39,18,Female,Right handed,2021-07-26_20h42.43.724,MA Experiment 2,2021.1.2,Win32,60.35003017,3,21,123,22,1,,,,,
0.7796,response_2,shortFoil,PIPING,EMULSION,,,,,,MINER,EMERALD,long,resources/sound/trials/audio_stim_human6.mp3,60fd7e00d473aab9ce3a8b39,18,Female,Right handed,2021-07-26_20h42.43.724,MA Experiment 2,2021.1.2,Win32,60.35003017,3,22,124,30,1,,,,,
1.612,response_2,,FERTILE,PHOTOGRAPH,,,,,,NAVY,RECTANGLE,short,resources/sound/catchTrials/audio_control_comp_project06.mp3,60fd7e00d473aab9ce3a8b39,18,Female,Right handed,2021-07-26_20h42.43.724,MA Experiment 2,2021.1.2,Win32,60.35003017,,,,,,0,15,15,6,1
1.1611,response_1,shortValid,MURDER,ORNAMENT,,,,,,DRIZZLE,CARDINAL,short,resources/sound/trials/audio_stim_comp69.mp3,60fd7e00d473aab9ce3a8b39,18,Female,Right handed,2021-07-26_20h42.43.724,MA Experiment 2,2021.1.2,Win32,60.35003017,3,23,125,0,1,,,,,
0.6785,response_1,longValid,PIANO,FURNITURE,,,,,,ATHLETE,IVORY,short,resources/sound/trials/audio_stim_comp57.mp3,60fd7e00d473aab9ce3a8b39,18,Female,Right handed,2021-07-26_20h42.43.724,MA Experiment 2,2021.1.2,Win32,60.35003017,3,24,126,5,1,,,,,
1.6298,response_2,shortFoil,JURY,DISSECTION,,,,,,RUBBER,PROPERTY,long,resources/sound/trials/audio_stim_human0.mp3,60fd7e00d473aab9ce3a8b39,18,Female,Right handed,2021-07-26_20h42.43.724,MA Experiment 2,2021.1.2,Win32,60.35003017,3,25,127,29,1,,,,,
1.7625,response_1,longFoil,EARTHWORM,MINERAL,,,,,,HARDWARE,OVERCOAT,long,resources/sound/trials/audio_stim_human35.mp3,60fd7e00d473aab9ce3a8b39,18,Female,Right handed,2021-07-26_20h42.43.724,MA Experiment 2,2021.1.2,Win32,60.35003017,3,26,128,25,1,,,,,
1.6955,response_1,,DIVING,INSTITUTE,,,,,,POISON,REVOLVER,short,resources/sound/catchTrials/audio_control_human_project01.mp3,60fd7e00d473aab9ce3a8b39,18,Female,Right handed,2021-07-26_20h42.43.724,MA Experiment 2,2021.1.2,Win32,60.35003017,,,,,,0,1,1,9,1
1.9455,response_2,longValid,BEETLE,GYMNASTICS,,,,,,RECEIPT,LIMOUSINE,long,resources/sound/trials/audio_stim_comp40.mp3,60fd7e00d473aab9ce3a8b39,18,Female,Right handed,2021-07-26_20h42.43.724,MA Experiment 2,2021.1.2,Win32,60.35003017,3,27,129,19,1,,,,,
0.7796,response_2,shortValid,LIQUID,DIAMOND,,,,,,WORKER,VISITOR,short,resources/sound/trials/audio_stim_comp17.mp3,60fd7e00d473aab9ce3a8b39,18,Female,Right handed,2021-07-26_20h42.43.724,MA Experiment 2,2021.1.2,Win32,60.35003017,3,28,130,6,1,,,,,
1.5451,response_1,shortValid,FEVER,NEIGHBOURHOOD,,,,,,SACRED,GALAXY,short,resources/sound/trials/audio_stim_comp1.mp3,60fd7e00d473aab9ce3a8b39,18,Female,Right handed,2021-07-26_20h42.43.724,MA Experiment 2,2021.1.2,Win32,60.35003017,3,29,131,7,1,,,,,
1.4122,response_2,longValid,NEIGHBOUR,UMBRELLA,,,,,,WORKER,VISITOR,long,resources/sound/trials/audio_stim_comp17.mp3,60fd7e00d473aab9ce3a8b39,18,Female,Right handed,2021-07-26_20h42.43.724,MA Experiment 2,2021.1.2,Win32,60.35003017,3,30,132,23,1,,,,,
2.3952,response_2,,TWEEZER,ALCOHOL,,,,,,NAVY,RECTANGLE,long,resources/sound/catchTrials/audio_control_comp_project06.mp3,60fd7e00d473aab9ce3a8b39,18,Female,Right handed,2021-07-26_20h42.43.724,MA Experiment 2,2021.1.2,Win32,60.35003017,,,,,,0,16,16,22,1
1.6615,response_1,longFoil,MURAL,CIGARETTE,,,,,,PAINTER,VEHICLE,long,resources/sound/trials/audio_stim_human47.mp3,60fd7e00d473aab9ce3a8b39,18,Female,Right handed,2021-07-26_20h42.43.724,MA Experiment 2,2021.1.2,Win32,60.35003017,3,31,133,28,1,,,,,
0.6953,response_1,shortFoil,ACRE,INFECTION,,,,,,MINER,EMERALD,long,resources/sound/trials/audio_stim_comp6.mp3,60fd7e00d473aab9ce3a8b39,18,Female,Right handed,2021-07-26_20h42.43.724,MA Experiment 2,2021.1.2,Win32,60.35003017,3,32,134,18,1,,,,,
1.2626,response_2,shortValid,KERNEL,CLARINET,,,,,,ROBBER,RATTLESNAKE,long,resources/sound/trials/audio_stim_human64.mp3,60fd7e00d473aab9ce3a8b39,18,Female,Right handed,2021-07-26_20h42.43.724,MA Experiment 2,2021.1.2,Win32,60.35003017,3,33,135,32,1,,,,,
