response.time,response,cueTarget,rand_foil_1,rand_foil_2,prac_trials.thisRepN,prac_trials.thisTrialN,prac_trials.thisN,prac_trials.thisIndex,prac_trials.ran,word_1,word_2,cue,file_path,participant,age,gender,handedness,date,expName,psychopyVersion,OS,frameRate,trials.thisRepN,trials.thisTrialN,trials.thisN,trials.thisIndex,trials.ran,catchTrials.thisRepN,catchTrials.thisTrialN,catchTrials.thisN,catchTrials.thisIndex,catchTrials.ran
,,shortFoil,MUSCLE,MONUMENT,0,0,0,7,1,BUCKLE,WALLABY,long,resources/sound/prac_trials/practice_cue_human7.mp3,60fd864f5093aed71238e08e,23,Female,Right handed,2021-07-26_20h58.45.334,MA Experiment 2,2021.1.2,MacIntel,60.0024001,,,,,,,,,,
3.5724,response_2,shortValid,DIAL,ENVELOPE,0,1,1,3,1,EAGER,QUALIFY,short,resources/sound/prac_trials/practice_cue_human3.mp3,60fd864f5093aed71238e08e,23,Female,Right handed,2021-07-26_20h58.45.334,MA Experiment 2,2021.1.2,MacIntel,60.0024001,,,,,,,,,,
0.7882,response_1,longFoil,BEETLE,ENAMEL,0,2,2,8,1,DAGGER,EMPHASIS,long,resources/sound/prac_trials/practice_cue8.mp3,60fd864f5093aed71238e08e,23,Female,Right handed,2021-07-26_20h58.45.334,MA Experiment 2,2021.1.2,MacIntel,60.0024001,,,,,,,,,,
0.8548,response_2,longFoil,SADDLE,MERCURY,0,3,3,4,1,FIZZY,ELECTRIC,short,resources/sound/prac_trials/practice_cue4.mp3,60fd864f5093aed71238e08e,23,Female,Right handed,2021-07-26_20h58.45.334,MA Experiment 2,2021.1.2,MacIntel,60.0024001,,,,,,,,,,
2.2377,response_1,longFoil,EARTHWORM,MINERAL,0,4,4,11,1,KETCHUP,GONDOLA,long,resources/sound/prac_trials/practice_cue_human11.mp3,60fd864f5093aed71238e08e,23,Female,Right handed,2021-07-26_20h58.45.334,MA Experiment 2,2021.1.2,MacIntel,60.0024001,,,,,,,,,,
1.4885,response_2,longValid,CAPTAIN,INSTITUTE,0,5,5,6,1,VACANT,SALVATION,long,resources/sound/prac_trials/practice_cue6.mp3,60fd864f5093aed71238e08e,23,Female,Right handed,2021-07-26_20h58.45.334,MA Experiment 2,2021.1.2,MacIntel,60.0024001,,,,,,,,,,
1.9388,response_2,shortFoil,LIQUID,RETAILER,0,6,6,2,1,RECENT,TOBACCO,short,resources/sound/prac_trials/practice_cue2.mp3,60fd864f5093aed71238e08e,23,Female,Right handed,2021-07-26_20h58.45.334,MA Experiment 2,2021.1.2,MacIntel,60.0024001,,,,,,,,,,
2.3059,response_1,longFoil,NAPKIN,INJURY,0,7,7,1,1,CABLE,REPUBLIC,short,resources/sound/prac_trials/practice_cue_human1.mp3,60fd864f5093aed71238e08e,23,Female,Right handed,2021-07-26_20h58.45.334,MA Experiment 2,2021.1.2,MacIntel,60.0024001,,,,,,,,,,
1.8554,response_2,shortFoil,SODA,DIAMOND,0,8,8,5,1,NONSENSE,OASIS,short,resources/sound/prac_trials/practice_cue_human5.mp3,60fd864f5093aed71238e08e,23,Female,Right handed,2021-07-26_20h58.45.334,MA Experiment 2,2021.1.2,MacIntel,60.0024001,,,,,,,,,,
2.1546,response_1,shortFoil,STOCKING,PHYSICIAN,0,9,9,0,1,AARDVARK,FALLACY,short,resources/sound/prac_trials/practice_cue0.mp3,60fd864f5093aed71238e08e,23,Female,Right handed,2021-07-26_20h58.45.334,MA Experiment 2,2021.1.2,MacIntel,60.0024001,,,,,,,,,,
2.1224,response_2,shortValid,TWEEZER,OXYGEN,0,10,10,9,1,GRUMPY,LABYRINTH,long,resources/sound/prac_trials/practice_cue_human9.mp3,60fd864f5093aed71238e08e,23,Female,Right handed,2021-07-26_20h58.45.334,MA Experiment 2,2021.1.2,MacIntel,60.0024001,,,,,,,,,,
1.9061,response_1,longFoil,RABBI,GOVERNMENT,0,11,11,10,1,SAFFRON,JAVELIN,long,resources/sound/prac_trials/practice_cue10.mp3,60fd864f5093aed71238e08e,23,Female,Right handed,2021-07-26_20h58.45.334,MA Experiment 2,2021.1.2,MacIntel,60.0024001,,,,,,,,,,
1.7898,response_2,shortValid,FERTILE,STRAWBERRY,,,,,,RECEIPT,LIMOUSINE,long,resources/sound/trials/audio_stim_comp40.mp3,60fd864f5093aed71238e08e,23,Female,Right handed,2021-07-26_20h58.45.334,MA Experiment 2,2021.1.2,MacIntel,60.0024001,0,0,0,19,1,,,,,
1.2538,response_1,longFoil,KETTLE,INFECTION,,,,,,MARBLE,CUSTOMER,short,resources/sound/trials/audio_stim_comp65.mp3,60fd864f5093aed71238e08e,23,Female,Right handed,2021-07-26_20h58.45.334,MA Experiment 2,2021.1.2,MacIntel,60.0024001,0,1,1,4,1,,,,,
1.7376,response_1,shortValid,KENNEL,AMMONIA,,,,,,MINER,EMERALD,long,resources/sound/trials/audio_stim_human6.mp3,60fd864f5093aed71238e08e,23,Female,Right handed,2021-07-26_20h58.45.334,MA Experiment 2,2021.1.2,MacIntel,60.0024001,0,2,2,30,1,,,,,
1.6204,response_2,,PIANO,ATTENDANT,,,,,,HOBBY,COLONY,long,resources/sound/catchTrials/audio_control_human_project04.mp3,60fd864f5093aed71238e08e,23,Female,Right handed,2021-07-26_20h58.45.334,MA Experiment 2,2021.1.2,MacIntel,60.0024001,,,,,,0,31,31,27,1
1.3541,response_2,shortFoil,SULPHUR,SAXOPHONE,,,,,,HARDWARE,OVERCOAT,short,resources/sound/trials/audio_stim_human35.mp3,60fd864f5093aed71238e08e,23,Female,Right handed,2021-07-26_20h58.45.334,MA Experiment 2,2021.1.2,MacIntel,60.0024001,0,3,3,8,1,,,,,
1.073,response_2,shortFoil,WINDOW,ATHLETICS,,,,,,RECEIPT,LIMOUSINE,short,resources/sound/trials/audio_stim_comp40.mp3,60fd864f5093aed71238e08e,23,Female,Right handed,2021-07-26_20h58.45.334,MA Experiment 2,2021.1.2,MacIntel,60.0024001,0,4,4,2,1,,,,,
0.9037,response_2,shortFoil,BISHOP,GORILLA,,,,,,DAYLIGHT,MATERIAL,long,resources/sound/trials/audio_stim_human42.mp3,60fd864f5093aed71238e08e,23,Female,Right handed,2021-07-26_20h58.45.334,MA Experiment 2,2021.1.2,MacIntel,60.0024001,0,5,5,26,1,,,,,
1.1724,response_2,longFoil,INVOICE,NEIGHBOURHOOD,,,,,,MARBLE,CUSTOMER,long,resources/sound/trials/audio_stim_comp65.mp3,60fd864f5093aed71238e08e,23,Female,Right handed,2021-07-26_20h58.45.334,MA Experiment 2,2021.1.2,MacIntel,60.0024001,0,6,6,21,1,,,,,
0.7385,response_2,,SCOOTER,INTERVIEW,,,,,,HOBBY,COLONY,short,resources/sound/catchTrials/audio_control_human_project04.mp3,60fd864f5093aed71238e08e,23,Female,Right handed,2021-07-26_20h58.45.334,MA Experiment 2,2021.1.2,MacIntel,60.0024001,,,,,,0,8,8,11,1
1.5228,response_2,longValid,POLO,CAMERA,,,,,,MINER,EMERALD,short,resources/sound/trials/audio_stim_human6.mp3,60fd864f5093aed71238e08e,23,Female,Right handed,2021-07-26_20h58.45.334,MA Experiment 2,2021.1.2,MacIntel,60.0024001,0,7,7,13,1,,,,,
2.0389,response_1,shortValid,NOVEL,SPECIALIST,,,,,,WHISTLE,TREASURER,short,resources/sound/trials/audio_stim_comp12.mp3,60fd864f5093aed71238e08e,23,Female,Right handed,2021-07-26_20h58.45.334,MA Experiment 2,2021.1.2,MacIntel,60.0024001,0,8,8,3,1,,,,,
1.4723,response_1,longFoil,TORTURE,HEADQUARTERS,,,,,,DRIZZLE,CARDINAL,short,resources/sound/trials/audio_stim_comp69.mp3,60fd864f5093aed71238e08e,23,Female,Right handed,2021-07-26_20h58.45.334,MA Experiment 2,2021.1.2,MacIntel,60.0024001,0,9,9,0,1,,,,,
1.6047,response_2,shortFoil,HAMMER,PHOTOGRAPH,,,,,,RUBBER,PROPERTY,short,resources/sound/trials/audio_stim_human0.mp3,60fd864f5093aed71238e08e,23,Female,Right handed,2021-07-26_20h58.45.334,MA Experiment 2,2021.1.2,MacIntel,60.0024001,0,10,10,12,1,,,,,
1.6383,response_2,,EVENING,OPENING,,,,,,CORNER,ENGINEER,short,resources/sound/catchTrials/audio_control_comp_project14.mp3,60fd864f5093aed71238e08e,23,Female,Right handed,2021-07-26_20h58.45.334,MA Experiment 2,2021.1.2,MacIntel,60.0024001,,,,,,0,17,17,1,1
0.8701,response_2,longValid,TRAITOR,GRASSHOPPER,,,,,,SACRED,GALAXY,short,resources/sound/trials/audio_stim_comp1.mp3,60fd864f5093aed71238e08e,23,Female,Right handed,2021-07-26_20h58.45.334,MA Experiment 2,2021.1.2,MacIntel,60.0024001,0,11,11,7,1,,,,,
2.2703,response_1,longFoil,INCOME,MEDICINE,,,,,,PAINTER,VEHICLE,long,resources/sound/trials/audio_stim_human47.mp3,60fd864f5093aed71238e08e,23,Female,Right handed,2021-07-26_20h58.45.334,MA Experiment 2,2021.1.2,MacIntel,60.0024001,0,12,12,28,1,,,,,
2.8063,response_2,longFoil,PERSON,CABINET,,,,,,ROBBER,RATTLESNAKE,long,resources/sound/trials/audio_stim_human64.mp3,60fd864f5093aed71238e08e,23,Female,Right handed,2021-07-26_20h58.45.334,MA Experiment 2,2021.1.2,MacIntel,60.0024001,0,13,13,32,1,,,,,
3.0393,response_1,shortFoil,SHEEPSKIN,BUTTERFLY,,,,,,PAINTER,VEHICLE,short,resources/sound/trials/audio_stim_human47.mp3,60fd864f5093aed71238e08e,23,Female,Right handed,2021-07-26_20h58.45.334,MA Experiment 2,2021.1.2,MacIntel,60.0024001,0,14,14,11,1,,,,,
1.1887,response_2,,DOORWAY,LECTURER,,,,,,BORDER,ALGEBRA,long,resources/sound/catchTrials/audio_control_comp_project00.mp3,60fd864f5093aed71238e08e,23,Female,Right handed,2021-07-26_20h58.45.334,MA Experiment 2,2021.1.2,MacIntel,60.0024001,,,,,,0,15,15,16,1
2.0722,response_2,longFoil,HAMSTER,MOLECULE,,,,,,HARDWARE,OVERCOAT,long,resources/sound/trials/audio_stim_human35.mp3,60fd864f5093aed71238e08e,23,Female,Right handed,2021-07-26_20h58.45.334,MA Experiment 2,2021.1.2,MacIntel,60.0024001,0,15,15,25,1,,,,,
1.3892,response_2,longValid,TEMPLE,ALCOHOL,,,,,,BRAINSTORM,GREEN NEEDLE,short,resources/sound/trials/audio_stim_original.mp3,60fd864f5093aed71238e08e,23,Female,Right handed,2021-07-26_20h58.45.334,MA Experiment 2,2021.1.2,MacIntel,60.0024001,0,16,16,16,1,,,,,
0.9062,response_2,longFoil,MURDER,HONEYMOON,,,,,,SACRED,GALAXY,long,resources/sound/trials/audio_stim_comp1.mp3,60fd864f5093aed71238e08e,23,Female,Right handed,2021-07-26_20h58.45.334,MA Experiment 2,2021.1.2,MacIntel,60.0024001,0,17,17,24,1,,,,,
1.1732,response_2,longFoil,PICTURE,ORNAMENT,,,,,,ATHLETE,IVORY,long,resources/sound/trials/audio_stim_comp57.mp3,60fd864f5093aed71238e08e,23,Female,Right handed,2021-07-26_20h58.45.334,MA Experiment 2,2021.1.2,MacIntel,60.0024001,0,18,18,22,1,,,,,
1.5046,response_1,,NATIVE,DISSECTION,,,,,,JUGGLER,DANDELION,long,resources/sound/catchTrials/audio_control_human_project09.mp3,60fd864f5093aed71238e08e,23,Female,Right handed,2021-07-26_20h58.45.334,MA Experiment 2,2021.1.2,MacIntel,60.0024001,,,,,,0,25,25,31,1
1.7215,response_2,shortFoil,STATION,DESTROYER,,,,,,WORKER,VISITOR,long,resources/sound/trials/audio_stim_comp17.mp3,60fd864f5093aed71238e08e,23,Female,Right handed,2021-07-26_20h58.45.334,MA Experiment 2,2021.1.2,MacIntel,60.0024001,0,19,19,23,1,,,,,
2.0721,response_2,longFoil,LOBSTER,FURNITURE,,,,,,CONCRETE,ENEMY,short,resources/sound/trials/audio_stim_human67.mp3,60fd864f5093aed71238e08e,23,Female,Right handed,2021-07-26_20h58.45.334,MA Experiment 2,2021.1.2,MacIntel,60.0024001,0,20,20,10,1,,,,,
1.7783,response_2,longValid,BUTTER,BEVERAGE,,,,,,CONCRETE,ENEMY,long,resources/sound/trials/audio_stim_human67.mp3,60fd864f5093aed71238e08e,23,Female,Right handed,2021-07-26_20h58.45.334,MA Experiment 2,2021.1.2,MacIntel,60.0024001,0,21,21,27,1,,,,,
1.9045,response_1,shortValid,DUEL,PROJECTOR,,,,,,PARTY,SANCTUARY,short,resources/sound/trials/audio_stim_human50.mp3,60fd864f5093aed71238e08e,23,Female,Right handed,2021-07-26_20h58.45.334,MA Experiment 2,2021.1.2,MacIntel,60.0024001,0,22,22,14,1,,,,,
1.2224,response_1,,PRINCESS,POLICEMAN,,,,,,VIOLET,LUBRICANT,short,resources/sound/catchTrials/audio_control_human_project07.mp3,60fd864f5093aed71238e08e,23,Female,Right handed,2021-07-26_20h58.45.334,MA Experiment 2,2021.1.2,MacIntel,60.0024001,,,,,,0,7,7,12,1
1.3552,response_2,longValid,WIRE,CONVENTION,,,,,,DAYLIGHT,MATERIAL,short,resources/sound/trials/audio_stim_human42.mp3,60fd864f5093aed71238e08e,23,Female,Right handed,2021-07-26_20h58.45.334,MA Experiment 2,2021.1.2,MacIntel,60.0024001,0,23,23,9,1,,,,,
3.7887,response_1,shortValid,HURDLE,TEMPERATURE,,,,,,MINER,EMERALD,long,resources/sound/trials/audio_stim_comp6.mp3,60fd864f5093aed71238e08e,23,Female,Right handed,2021-07-26_20h58.45.334,MA Experiment 2,2021.1.2,MacIntel,60.0024001,0,24,24,18,1,,,,,
2.5879,response_2,shortValid,ANCHOR,CHOCOLATE,,,,,,ROBBER,RATTLESNAKE,short,resources/sound/trials/audio_stim_human64.mp3,60fd864f5093aed71238e08e,23,Female,Right handed,2021-07-26_20h58.45.334,MA Experiment 2,2021.1.2,MacIntel,60.0024001,0,25,25,15,1,,,,,
1.0884,response_1,shortValid,VILLAGE,GALLERY,,,,,,WORKER,VISITOR,short,resources/sound/trials/audio_stim_comp17.mp3,60fd864f5093aed71238e08e,23,Female,Right handed,2021-07-26_20h58.45.334,MA Experiment 2,2021.1.2,MacIntel,60.0024001,0,26,26,6,1,,,,,
1.1712,response_2,,MORNING,CAPITAL,,,,,,ICY,JITTERBUG,short,resources/sound/catchTrials/audio_control_comp_project08.mp3,60fd864f5093aed71238e08e,23,Female,Right handed,2021-07-26_20h58.45.334,MA Experiment 2,2021.1.2,MacIntel,60.0024001,,,,,,0,19,19,7,1
1.7223,response_2,longFoil,WAFER,CINNAMON,,,,,,ATHLETE,IVORY,short,resources/sound/trials/audio_stim_comp57.mp3,60fd864f5093aed71238e08e,23,Female,Right handed,2021-07-26_20h58.45.334,MA Experiment 2,2021.1.2,MacIntel,60.0024001,0,27,27,5,1,,,,,
0.6903,response_2,longFoil,WRITING,CLARINET,,,,,,MINER,EMERALD,short,resources/sound/trials/audio_stim_comp6.mp3,60fd864f5093aed71238e08e,23,Female,Right handed,2021-07-26_20h58.45.334,MA Experiment 2,2021.1.2,MacIntel,60.0024001,0,28,28,1,1,,,,,
1.9897,response_1,longFoil,SINGER,INSTRUCTOR,,,,,,WHISTLE,TREASURER,long,resources/sound/trials/audio_stim_comp12.mp3,60fd864f5093aed71238e08e,23,Female,Right handed,2021-07-26_20h58.45.334,MA Experiment 2,2021.1.2,MacIntel,60.0024001,0,29,29,20,1,,,,,
1.8058,response_2,longValid,CABIN,HURRICANE,,,,,,RUBBER,PROPERTY,long,resources/sound/trials/audio_stim_human0.mp3,60fd864f5093aed71238e08e,23,Female,Right handed,2021-07-26_20h58.45.334,MA Experiment 2,2021.1.2,MacIntel,60.0024001,0,30,30,29,1,,,,,
1.6891,response_1,,FATHER,ICICLE,,,,,,JUGGLER,DANDELION,short,resources/sound/catchTrials/audio_control_human_project09.mp3,60fd864f5093aed71238e08e,23,Female,Right handed,2021-07-26_20h58.45.334,MA Experiment 2,2021.1.2,MacIntel,60.0024001,,,,,,0,27,27,15,1
1.1722,response_1,shortFoil,WALRUS,MECHANIC,,,,,,PARTY,SANCTUARY,long,resources/sound/trials/audio_stim_human50.mp3,60fd864f5093aed71238e08e,23,Female,Right handed,2021-07-26_20h58.45.334,MA Experiment 2,2021.1.2,MacIntel,60.0024001,0,31,31,31,1,,,,,
1.4063,response_2,shortFoil,GRADUATE,CARNATION,,,,,,BRAINSTORM,GREEN NEEDLE,long,resources/sound/trials/audio_stim_original.mp3,60fd864f5093aed71238e08e,23,Female,Right handed,2021-07-26_20h58.45.334,MA Experiment 2,2021.1.2,MacIntel,60.0024001,0,32,32,33,1,,,,,
0.6391,response_1,shortFoil,CANTEEN,ASBESTOS,,,,,,DRIZZLE,CARDINAL,long,resources/sound/trials/audio_stim_comp69.mp3,60fd864f5093aed71238e08e,23,Female,Right handed,2021-07-26_20h58.45.334,MA Experiment 2,2021.1.2,MacIntel,60.0024001,0,33,33,17,1,,,,,
3.054,response_1,longFoil,MOONLIGHT,POTATO,,,,,,CONCRETE,ENEMY,long,resources/sound/trials/audio_stim_human67.mp3,60fd864f5093aed71238e08e,23,Female,Right handed,2021-07-26_20h58.45.334,MA Experiment 2,2021.1.2,MacIntel,60.0024001,1,0,34,27,1,,,,,
1.7563,response_2,shortFoil,FOREARM,FACTORY,,,,,,WORKER,VISITOR,short,resources/sound/trials/audio_stim_comp17.mp3,60fd864f5093aed71238e08e,23,Female,Right handed,2021-07-26_20h58.45.334,MA Experiment 2,2021.1.2,MacIntel,60.0024001,1,1,35,6,1,,,,,
0.7228,response_1,longValid,DWELLER,COMMITTEE,,,,,,PARTY,SANCTUARY,long,resources/sound/trials/audio_stim_human50.mp3,60fd864f5093aed71238e08e,23,Female,Right handed,2021-07-26_20h58.45.334,MA Experiment 2,2021.1.2,MacIntel,60.0024001,1,2,36,31,1,,,,,
1.1709,response_2,,SEGMENT,CITIZEN,,,,,,IRIS,VIOLIN,long,resources/sound/catchTrials/audio_control_human_project12.mp3,60fd864f5093aed71238e08e,23,Female,Right handed,2021-07-26_20h58.45.334,MA Experiment 2,2021.1.2,MacIntel,60.0024001,,,,,,0,30,30,24,1
1.5058,response_2,shortFoil,PATIENT,MINISTER,,,,,,HARDWARE,OVERCOAT,long,resources/sound/trials/audio_stim_human35.mp3,60fd864f5093aed71238e08e,23,Female,Right handed,2021-07-26_20h58.45.334,MA Experiment 2,2021.1.2,MacIntel,60.0024001,1,3,37,25,1,,,,,
1.4896,response_2,longValid,MURAL,HOSPITAL,,,,,,RECEIPT,LIMOUSINE,long,resources/sound/trials/audio_stim_comp40.mp3,60fd864f5093aed71238e08e,23,Female,Right handed,2021-07-26_20h58.45.334,MA Experiment 2,2021.1.2,MacIntel,60.0024001,1,4,38,19,1,,,,,
0.8872,response_1,shortValid,DIVING,FIREWOOD,,,,,,PAINTER,VEHICLE,long,resources/sound/trials/audio_stim_human47.mp3,60fd864f5093aed71238e08e,23,Female,Right handed,2021-07-26_20h58.45.334,MA Experiment 2,2021.1.2,MacIntel,60.0024001,1,5,39,28,1,,,,,
2.054,response_2,longValid,HARBOUR,MESSENGER,,,,,,MINER,EMERALD,short,resources/sound/trials/audio_stim_comp6.mp3,60fd864f5093aed71238e08e,23,Female,Right handed,2021-07-26_20h58.45.334,MA Experiment 2,2021.1.2,MacIntel,60.0024001,1,6,40,1,1,,,,,
1.1876,response_2,,OLIVE,ADMIRAL,,,,,,SPINACH,APRICOT,short,resources/sound/catchTrials/audio_control_comp_project18.mp3,60fd864f5093aed71238e08e,23,Female,Right handed,2021-07-26_20h58.45.334,MA Experiment 2,2021.1.2,MacIntel,60.0024001,,,,,,0,11,11,5,1
1.8215,response_2,shortValid,DANCER,CORRIDOR,,,,,,MINER,EMERALD,short,resources/sound/trials/audio_stim_human6.mp3,60fd864f5093aed71238e08e,23,Female,Right handed,2021-07-26_20h58.45.334,MA Experiment 2,2021.1.2,MacIntel,60.0024001,1,7,41,13,1,,,,,
1.7381,response_2,longFoil,FEVER,LEMONADE,,,,,,RUBBER,PROPERTY,short,resources/sound/trials/audio_stim_human0.mp3,60fd864f5093aed71238e08e,23,Female,Right handed,2021-07-26_20h58.45.334,MA Experiment 2,2021.1.2,MacIntel,60.0024001,1,8,42,12,1,,,,,
1.4884,response_2,shortValid,CRYSTAL,GINGERBREAD,,,,,,RECEIPT,LIMOUSINE,short,resources/sound/trials/audio_stim_comp40.mp3,60fd864f5093aed71238e08e,23,Female,Right handed,2021-07-26_20h58.45.334,MA Experiment 2,2021.1.2,MacIntel,60.0024001,1,9,43,2,1,,,,,
1.338,response_2,longValid,MEDICINE,APPLIANCE,,,,,,DRIZZLE,CARDINAL,short,resources/sound/trials/audio_stim_comp69.mp3,60fd864f5093aed71238e08e,23,Female,Right handed,2021-07-26_20h58.45.334,MA Experiment 2,2021.1.2,MacIntel,60.0024001,1,10,44,0,1,,,,,
1.3699,response_2,,LIGHTNING,INDUSTRY,,,,,,JOURNAL,ROBBERY,long,resources/sound/catchTrials/audio_control_human_project02.mp3,60fd864f5093aed71238e08e,23,Female,Right handed,2021-07-26_20h58.45.334,MA Experiment 2,2021.1.2,MacIntel,60.0024001,,,,,,0,16,16,29,1
2.5882,response_1,longFoil,NECKLACE,AVENUE,,,,,,ROBBER,RATTLESNAKE,short,resources/sound/trials/audio_stim_human64.mp3,60fd864f5093aed71238e08e,23,Female,Right handed,2021-07-26_20h58.45.334,MA Experiment 2,2021.1.2,MacIntel,60.0024001,1,11,45,15,1,,,,,
2.1444,response_2,shortValid,GIRDLE,CROCODILE,,,,,,ROBBER,RATTLESNAKE,long,resources/sound/trials/audio_stim_human64.mp3,60fd864f5093aed71238e08e,23,Female,Right handed,2021-07-26_20h58.45.334,MA Experiment 2,2021.1.2,MacIntel,60.0024001,1,12,46,32,1,,,,,
2.3881,response_1,longValid,SOFA,JANITOR,,,,,,WHISTLE,TREASURER,short,resources/sound/trials/audio_stim_comp12.mp3,60fd864f5093aed71238e08e,23,Female,Right handed,2021-07-26_20h58.45.334,MA Experiment 2,2021.1.2,MacIntel,60.0024001,1,13,47,3,1,,,,,
2.0219,response_2,longFoil,DECOY,ALPHABET,,,,,,SACRED,GALAXY,short,resources/sound/trials/audio_stim_comp1.mp3,60fd864f5093aed71238e08e,23,Female,Right handed,2021-07-26_20h58.45.334,MA Experiment 2,2021.1.2,MacIntel,60.0024001,1,14,48,7,1,,,,,
1.2551,response_1,,CIGAR,SETTLEMENT,,,,,,VIOLET,LUBRICANT,short,resources/sound/catchTrials/audio_control_comp_project07.mp3,60fd864f5093aed71238e08e,23,Female,Right handed,2021-07-26_20h58.45.334,MA Experiment 2,2021.1.2,MacIntel,60.0024001,,,,,,0,5,5,3,1
1.0893,response_1,shortValid,ACRE,FAMILY,,,,,,BRAINSTORM,GREEN NEEDLE,short,resources/sound/trials/audio_stim_original.mp3,60fd864f5093aed71238e08e,23,Female,Right handed,2021-07-26_20h58.45.334,MA Experiment 2,2021.1.2,MacIntel,60.0024001,1,15,49,16,1,,,,,
1.9039,response_2,longValid,VESSEL,CANDLELIGHT,,,,,,MINER,EMERALD,long,resources/sound/trials/audio_stim_human6.mp3,60fd864f5093aed71238e08e,23,Female,Right handed,2021-07-26_20h58.45.334,MA Experiment 2,2021.1.2,MacIntel,60.0024001,1,16,50,30,1,,,,,
1.8924,response_2,longValid,NEIGHBOUR,NEWSPAPER,,,,,,MINER,EMERALD,long,resources/sound/trials/audio_stim_comp6.mp3,60fd864f5093aed71238e08e,23,Female,Right handed,2021-07-26_20h58.45.334,MA Experiment 2,2021.1.2,MacIntel,60.0024001,1,17,51,18,1,,,,,
1.9051,response_2,shortValid,PIPING,ABDOMEN,,,,,,DAYLIGHT,MATERIAL,short,resources/sound/trials/audio_stim_human42.mp3,60fd864f5093aed71238e08e,23,Female,Right handed,2021-07-26_20h58.45.334,MA Experiment 2,2021.1.2,MacIntel,60.0024001,1,18,52,9,1,,,,,
0.9554,response_2,,BURNER,EMULSION,,,,,,IRIS,VIOLIN,long,resources/sound/catchTrials/audio_control_comp_project12.mp3,60fd864f5093aed71238e08e,23,Female,Right handed,2021-07-26_20h58.45.334,MA Experiment 2,2021.1.2,MacIntel,60.0024001,,,,,,0,18,18,20,1
1.856,response_1,longValid,MISTRESS,CATHEDRAL,,,,,,PAINTER,VEHICLE,short,resources/sound/trials/audio_stim_human47.mp3,60fd864f5093aed71238e08e,23,Female,Right handed,2021-07-26_20h58.45.334,MA Experiment 2,2021.1.2,MacIntel,60.0024001,1,19,53,11,1,,,,,
1.1723,response_1,longFoil,KERNEL,MICROSCOPE,,,,,,RUBBER,PROPERTY,long,resources/sound/trials/audio_stim_human0.mp3,60fd864f5093aed71238e08e,23,Female,Right handed,2021-07-26_20h58.45.334,MA Experiment 2,2021.1.2,MacIntel,60.0024001,1,20,54,29,1,,,,,
2.1045,response_2,longValid,UNCLE,REFEREE,,,,,,MARBLE,CUSTOMER,long,resources/sound/trials/audio_stim_comp65.mp3,60fd864f5093aed71238e08e,23,Female,Right handed,2021-07-26_20h58.45.334,MA Experiment 2,2021.1.2,MacIntel,60.0024001,1,21,55,21,1,,,,,
1.9553,response_4,shortValid,FAIRY,FISHERMAN,,,,,,WHISTLE,TREASURER,long,resources/sound/trials/audio_stim_comp12.mp3,60fd864f5093aed71238e08e,23,Female,Right handed,2021-07-26_20h58.45.334,MA Experiment 2,2021.1.2,MacIntel,60.0024001,1,22,56,20,1,,,,,
1.9386,response_2,,VAPOUR,CIGARETTE,,,,,,SPINACH,APRICOT,long,resources/sound/catchTrials/audio_control_comp_project18.mp3,60fd864f5093aed71238e08e,23,Female,Right handed,2021-07-26_20h58.45.334,MA Experiment 2,2021.1.2,MacIntel,60.0024001,,,,,,0,4,4,21,1
2.3711,response_2,shortFoil,CEREAL,HANDKERCHIEF,,,,,,SACRED,GALAXY,long,resources/sound/trials/audio_stim_comp1.mp3,60fd864f5093aed71238e08e,23,Female,Right handed,2021-07-26_20h58.45.334,MA Experiment 2,2021.1.2,MacIntel,60.0024001,1,23,57,24,1,,,,,
0.8381,response_2,longFoil,NURSERY,GYMNASTICS,,,,,,DRIZZLE,CARDINAL,long,resources/sound/trials/audio_stim_comp69.mp3,60fd864f5093aed71238e08e,23,Female,Right handed,2021-07-26_20h58.45.334,MA Experiment 2,2021.1.2,MacIntel,60.0024001,1,24,58,17,1,,,,,
1.4037,response_1,longValid,PODIUM,MOSQUITO,,,,,,MARBLE,CUSTOMER,short,resources/sound/trials/audio_stim_comp65.mp3,60fd864f5093aed71238e08e,23,Female,Right handed,2021-07-26_20h58.45.334,MA Experiment 2,2021.1.2,MacIntel,60.0024001,1,25,59,4,1,,,,,
1.6532,response_2,longValid,OFFICE,ACROBAT,,,,,,BRAINSTORM,GREEN NEEDLE,long,resources/sound/trials/audio_stim_original.mp3,60fd864f5093aed71238e08e,23,Female,Right handed,2021-07-26_20h58.45.334,MA Experiment 2,2021.1.2,MacIntel,60.0024001,1,26,60,33,1,,,,,
1.1051,response_2,,BERRY,ANTIQUE,,,,,,BORDER,ALGEBRA,short,resources/sound/catchTrials/audio_control_comp_project00.mp3,60fd864f5093aed71238e08e,23,Female,Right handed,2021-07-26_20h58.45.334,MA Experiment 2,2021.1.2,MacIntel,60.0024001,,,,,,0,22,22,0,1
0.7553,response_2,longValid,VALLEY,AMBULANCE,,,,,,HARDWARE,OVERCOAT,short,resources/sound/trials/audio_stim_human35.mp3,60fd864f5093aed71238e08e,23,Female,Right handed,2021-07-26_20h58.45.334,MA Experiment 2,2021.1.2,MacIntel,60.0024001,1,27,61,8,1,,,,,
1.6052,response_2,longValid,CHIPMUNK,PROFESSOR,,,,,,CONCRETE,ENEMY,short,resources/sound/trials/audio_stim_human67.mp3,60fd864f5093aed71238e08e,23,Female,Right handed,2021-07-26_20h58.45.334,MA Experiment 2,2021.1.2,MacIntel,60.0024001,1,28,62,10,1,,,,,
1.5228,response_1,longFoil,SHOULDER,HEROIN,,,,,,DAYLIGHT,MATERIAL,long,resources/sound/trials/audio_stim_human42.mp3,60fd864f5093aed71238e08e,23,Female,Right handed,2021-07-26_20h58.45.334,MA Experiment 2,2021.1.2,MacIntel,60.0024001,1,29,63,26,1,,,,,
1.2894,response_1,shortFoil,MEASLES,TANGERINE,,,,,,ATHLETE,IVORY,short,resources/sound/trials/audio_stim_comp57.mp3,60fd864f5093aed71238e08e,23,Female,Right handed,2021-07-26_20h58.45.334,MA Experiment 2,2021.1.2,MacIntel,60.0024001,1,30,64,5,1,,,,,
1.839,response_2,,TUMBLE,UMBRELLA,,,,,,JOURNAL,ROBBERY,short,resources/sound/catchTrials/audio_control_human_project02.mp3,60fd864f5093aed71238e08e,23,Female,Right handed,2021-07-26_20h58.45.334,MA Experiment 2,2021.1.2,MacIntel,60.0024001,,,,,,0,12,12,13,1
2.3706,response_1,longFoil,LEADER,VINEGAR,,,,,,PARTY,SANCTUARY,short,resources/sound/trials/audio_stim_human50.mp3,60fd864f5093aed71238e08e,23,Female,Right handed,2021-07-26_20h58.45.334,MA Experiment 2,2021.1.2,MacIntel,60.0024001,1,31,65,14,1,,,,,
0.8552,response_2,longFoil,JURY,POLIO,,,,,,WORKER,VISITOR,long,resources/sound/trials/audio_stim_comp17.mp3,60fd864f5093aed71238e08e,23,Female,Right handed,2021-07-26_20h58.45.334,MA Experiment 2,2021.1.2,MacIntel,60.0024001,1,32,66,23,1,,,,,
1.388,response_1,shortValid,CURFEW,PROPELLER,,,,,,ATHLETE,IVORY,long,resources/sound/trials/audio_stim_comp57.mp3,60fd864f5093aed71238e08e,23,Female,Right handed,2021-07-26_20h58.45.334,MA Experiment 2,2021.1.2,MacIntel,60.0024001,1,33,67,22,1,,,,,
1.9891,response_2,shortValid,RUSTY,INSTRUMENT,,,,,,MINER,EMERALD,short,resources/sound/trials/audio_stim_comp6.mp3,60fd864f5093aed71238e08e,23,Female,Right handed,2021-07-26_20h58.45.334,MA Experiment 2,2021.1.2,MacIntel,60.0024001,2,0,68,1,1,,,,,
1.7718,response_2,longValid,TRAITOR,ORNAMENT,,,,,,WORKER,VISITOR,long,resources/sound/trials/audio_stim_comp17.mp3,60fd864f5093aed71238e08e,23,Female,Right handed,2021-07-26_20h58.45.334,MA Experiment 2,2021.1.2,MacIntel,60.0024001,2,1,69,23,1,,,,,
2.2058,response_1,shortFoil,MORNING,FIREWOOD,,,,,,ROBBER,RATTLESNAKE,short,resources/sound/trials/audio_stim_human64.mp3,60fd864f5093aed71238e08e,23,Female,Right handed,2021-07-26_20h58.45.334,MA Experiment 2,2021.1.2,MacIntel,60.0024001,2,2,70,15,1,,,,,
1.6703,response_2,,DECOY,INSTRUCTOR,,,,,,ICY,JITTERBUG,long,resources/sound/catchTrials/audio_control_comp_project08.mp3,60fd864f5093aed71238e08e,23,Female,Right handed,2021-07-26_20h58.45.334,MA Experiment 2,2021.1.2,MacIntel,60.0024001,,,,,,0,6,6,23,1
1.7879,response_2,longFoil,PIANO,NEIGHBOURHOOD,,,,,,BRAINSTORM,GREEN NEEDLE,short,resources/sound/trials/audio_stim_original.mp3,60fd864f5093aed71238e08e,23,Female,Right handed,2021-07-26_20h58.45.334,MA Experiment 2,2021.1.2,MacIntel,60.0024001,2,3,71,16,1,,,,,
1.6544,response_2,longValid,LIGHTNING,MOLECULE,,,,,,RECEIPT,LIMOUSINE,short,resources/sound/trials/audio_stim_comp40.mp3,60fd864f5093aed71238e08e,23,Female,Right handed,2021-07-26_20h58.45.334,MA Experiment 2,2021.1.2,MacIntel,60.0024001,2,4,72,2,1,,,,,
2.1395,response_2,longValid,MURAL,CHOCOLATE,,,,,,HARDWARE,OVERCOAT,long,resources/sound/trials/audio_stim_human35.mp3,60fd864f5093aed71238e08e,23,Female,Right handed,2021-07-26_20h58.45.334,MA Experiment 2,2021.1.2,MacIntel,60.0024001,2,5,73,25,1,,,,,
1.1216,response_2,longFoil,SOFA,TANGERINE,,,,,,MINER,EMERALD,short,resources/sound/trials/audio_stim_human6.mp3,60fd864f5093aed71238e08e,23,Female,Right handed,2021-07-26_20h58.45.334,MA Experiment 2,2021.1.2,MacIntel,60.0024001,2,6,74,13,1,,,,,
1.1384,response_2,,BURNER,HEADQUARTERS,,,,,,NAVY,RECTANGLE,long,resources/sound/catchTrials/audio_control_comp_project06.mp3,60fd864f5093aed71238e08e,23,Female,Right handed,2021-07-26_20h58.45.334,MA Experiment 2,2021.1.2,MacIntel,60.0024001,,,,,,0,20,20,22,1
2.5387,response_3,longValid,MEASLES,HANDKERCHIEF,,,,,,WHISTLE,TREASURER,long,resources/sound/trials/audio_stim_comp12.mp3,60fd864f5093aed71238e08e,23,Female,Right handed,2021-07-26_20h58.45.334,MA Experiment 2,2021.1.2,MacIntel,60.0024001,2,7,75,20,1,,,,,
1.256,response_2,longFoil,BERRY,CAMERA,,,,,,RECEIPT,LIMOUSINE,long,resources/sound/trials/audio_stim_comp40.mp3,60fd864f5093aed71238e08e,23,Female,Right handed,2021-07-26_20h58.45.334,MA Experiment 2,2021.1.2,MacIntel,60.0024001,2,8,76,19,1,,,,,
2.1057,response_1,shortFoil,SULPHUR,FURNITURE,,,,,,ATHLETE,IVORY,long,resources/sound/trials/audio_stim_comp57.mp3,60fd864f5093aed71238e08e,23,Female,Right handed,2021-07-26_20h58.45.334,MA Experiment 2,2021.1.2,MacIntel,60.0024001,2,9,77,22,1,,,,,
1.4229,response_2,longValid,SHOULDER,INSTITUTE,,,,,,RUBBER,PROPERTY,short,resources/sound/trials/audio_stim_human0.mp3,60fd864f5093aed71238e08e,23,Female,Right handed,2021-07-26_20h58.45.334,MA Experiment 2,2021.1.2,MacIntel,60.0024001,2,10,78,12,1,,,,,
1.2719,response_2,,TWEEZER,CONVENTION,,,,,,IRIS,VIOLIN,short,resources/sound/catchTrials/audio_control_human_project12.mp3,60fd864f5093aed71238e08e,23,Female,Right handed,2021-07-26_20h58.45.334,MA Experiment 2,2021.1.2,MacIntel,60.0024001,,,,,,0,24,24,8,1
1.6045,response_1,shortFoil,DUEL,CORRIDOR,,,,,,MARBLE,CUSTOMER,short,resources/sound/trials/audio_stim_comp65.mp3,60fd864f5093aed71238e08e,23,Female,Right handed,2021-07-26_20h58.45.334,MA Experiment 2,2021.1.2,MacIntel,60.0024001,2,11,79,4,1,,,,,
1.5227,response_2,longFoil,SINGER,ASBESTOS,,,,,,HARDWARE,OVERCOAT,short,resources/sound/trials/audio_stim_human35.mp3,60fd864f5093aed71238e08e,23,Female,Right handed,2021-07-26_20h58.45.334,MA Experiment 2,2021.1.2,MacIntel,60.0024001,2,12,80,8,1,,,,,
1.1893,response_1,shortFoil,INCOME,CAPITAL,,,,,,PARTY,SANCTUARY,short,resources/sound/trials/audio_stim_human50.mp3,60fd864f5093aed71238e08e,23,Female,Right handed,2021-07-26_20h58.45.334,MA Experiment 2,2021.1.2,MacIntel,60.0024001,2,13,81,14,1,,,,,
1.3038,response_2,longFoil,ANCHOR,CABINET,,,,,,BRAINSTORM,GREEN NEEDLE,long,resources/sound/trials/audio_stim_original.mp3,60fd864f5093aed71238e08e,23,Female,Right handed,2021-07-26_20h58.45.334,MA Experiment 2,2021.1.2,MacIntel,60.0024001,2,14,82,33,1,,,,,
1.0888,response_2,,NURSERY,ENAMEL,,,,,,NAVY,RECTANGLE,short,resources/sound/catchTrials/audio_control_comp_project06.mp3,60fd864f5093aed71238e08e,23,Female,Right handed,2021-07-26_20h58.45.334,MA Experiment 2,2021.1.2,MacIntel,60.0024001,,,,,,0,28,28,6,1
1.723,response_2,shortFoil,HARBOUR,STRAWBERRY,,,,,,DRIZZLE,CARDINAL,short,resources/sound/trials/audio_stim_comp69.mp3,60fd864f5093aed71238e08e,23,Female,Right handed,2021-07-26_20h58.45.334,MA Experiment 2,2021.1.2,MacIntel,60.0024001,2,15,83,0,1,,,,,
1.154,response_2,longValid,BISHOP,FISHERMAN,,,,,,ROBBER,RATTLESNAKE,long,resources/sound/trials/audio_stim_human64.mp3,60fd864f5093aed71238e08e,23,Female,Right handed,2021-07-26_20h58.45.334,MA Experiment 2,2021.1.2,MacIntel,60.0024001,2,16,84,32,1,,,,,
2.0221,response_1,shortFoil,HAMSTER,SAXOPHONE,,,,,,CONCRETE,ENEMY,long,resources/sound/trials/audio_stim_human67.mp3,60fd864f5093aed71238e08e,23,Female,Right handed,2021-07-26_20h58.45.334,MA Experiment 2,2021.1.2,MacIntel,60.0024001,2,17,85,27,1,,,,,
2.5879,response_2,shortFoil,FOREARM,CITIZEN,,,,,,MINER,EMERALD,long,resources/sound/trials/audio_stim_comp6.mp3,60fd864f5093aed71238e08e,23,Female,Right handed,2021-07-26_20h58.45.334,MA Experiment 2,2021.1.2,MacIntel,60.0024001,2,18,86,18,1,,,,,
1.6378,response_1,,FERTILE,CINNAMON,,,,,,POISON,REVOLVER,long,resources/sound/catchTrials/audio_control_human_project01.mp3,60fd864f5093aed71238e08e,23,Female,Right handed,2021-07-26_20h58.45.334,MA Experiment 2,2021.1.2,MacIntel,60.0024001,,,,,,0,1,1,25,1
1.906,response_2,shortFoil,PRINCESS,SPECIALIST,,,,,,SACRED,GALAXY,short,resources/sound/trials/audio_stim_comp1.mp3,60fd864f5093aed71238e08e,23,Female,Right handed,2021-07-26_20h58.45.334,MA Experiment 2,2021.1.2,MacIntel,60.0024001,2,19,87,7,1,,,,,
1.2063,response_2,shortFoil,KENNEL,BEVERAGE,,,,,,RUBBER,PROPERTY,long,resources/sound/trials/audio_stim_human0.mp3,60fd864f5093aed71238e08e,23,Female,Right handed,2021-07-26_20h58.45.334,MA Experiment 2,2021.1.2,MacIntel,60.0024001,2,20,88,29,1,,,,,
1.6232,response_1,longFoil,CABIN,RETAILER,,,,,,PARTY,SANCTUARY,long,resources/sound/trials/audio_stim_human50.mp3,60fd864f5093aed71238e08e,23,Female,Right handed,2021-07-26_20h58.45.334,MA Experiment 2,2021.1.2,MacIntel,60.0024001,2,21,89,31,1,,,,,
2.0894,response_2,longValid,DOORWAY,SETTLEMENT,,,,,,DRIZZLE,CARDINAL,long,resources/sound/trials/audio_stim_comp69.mp3,60fd864f5093aed71238e08e,23,Female,Right handed,2021-07-26_20h58.45.334,MA Experiment 2,2021.1.2,MacIntel,60.0024001,2,22,90,17,1,,,,,
2.0058,response_2,,NEIGHBOUR,HURRICANE,,,,,,CORNER,ENGINEER,long,resources/sound/catchTrials/audio_control_comp_project14.mp3,60fd864f5093aed71238e08e,23,Female,Right handed,2021-07-26_20h58.45.334,MA Experiment 2,2021.1.2,MacIntel,60.0024001,,,,,,0,14,14,17,1
1.2068,response_2,shortValid,MEDICINE,APPLIANCE,,,,,,MARBLE,CUSTOMER,long,resources/sound/trials/audio_stim_comp65.mp3,60fd864f5093aed71238e08e,23,Female,Right handed,2021-07-26_20h58.45.334,MA Experiment 2,2021.1.2,MacIntel,60.0024001,2,23,91,21,1,,,,,
1.7723,response_1,shortFoil,PERSON,DIAMOND,,,,,,WHISTLE,TREASURER,short,resources/sound/trials/audio_stim_comp12.mp3,60fd864f5093aed71238e08e,23,Female,Right handed,2021-07-26_20h58.45.334,MA Experiment 2,2021.1.2,MacIntel,60.0024001,2,24,92,3,1,,,,,
1.4233,response_2,longValid,CANTEEN,CARNATION,,,,,,PAINTER,VEHICLE,long,resources/sound/trials/audio_stim_human47.mp3,60fd864f5093aed71238e08e,23,Female,Right handed,2021-07-26_20h58.45.334,MA Experiment 2,2021.1.2,MacIntel,60.0024001,2,25,93,28,1,,,,,
2.8932,response_2,longValid,GIRDLE,ICICLE,,,,,,DAYLIGHT,MATERIAL,long,resources/sound/trials/audio_stim_human42.mp3,60fd864f5093aed71238e08e,23,Female,Right handed,2021-07-26_20h58.45.334,MA Experiment 2,2021.1.2,MacIntel,60.0024001,2,26,94,26,1,,,,,
2.2081,response_2,,WIRE,UMBRELLA,,,,,,CORNER,ENGINEER,long,resources/sound/catchTrials/audio_control_human_project14.mp3,60fd864f5093aed71238e08e,23,Female,Right handed,2021-07-26_20h58.45.334,MA Experiment 2,2021.1.2,MacIntel,60.0024001,,,,,,0,3,3,26,1
2.0587,response_2,longValid,MUSCLE,OXYGEN,,,,,,WORKER,VISITOR,short,resources/sound/trials/audio_stim_comp17.mp3,60fd864f5093aed71238e08e,23,Female,Right handed,2021-07-26_20h58.45.334,MA Experiment 2,2021.1.2,MacIntel,60.0024001,2,27,95,6,1,,,,,
1.1889,response_2,shortValid,SADDLE,MINERAL,,,,,,SACRED,GALAXY,long,resources/sound/trials/audio_stim_comp1.mp3,60fd864f5093aed71238e08e,23,Female,Right handed,2021-07-26_20h58.45.334,MA Experiment 2,2021.1.2,MacIntel,60.0024001,2,28,96,24,1,,,,,
2.0403,response_1,shortValid,DIVING,JANITOR,,,,,,PAINTER,VEHICLE,short,resources/sound/trials/audio_stim_human47.mp3,60fd864f5093aed71238e08e,23,Female,Right handed,2021-07-26_20h58.45.334,MA Experiment 2,2021.1.2,MacIntel,60.0024001,2,29,97,11,1,,,,,
0.7729,response_2,longFoil,MISTRESS,BUTTERFLY,,,,,,MINER,EMERALD,long,resources/sound/trials/audio_stim_human6.mp3,60fd864f5093aed71238e08e,23,Female,Right handed,2021-07-26_20h58.45.334,MA Experiment 2,2021.1.2,MacIntel,60.0024001,2,30,98,30,1,,,,,
0.9053,response_2,,CRYSTAL,DESTROYER,,,,,,NAVY,RECTANGLE,long,resources/sound/catchTrials/audio_control_human_project06.mp3,60fd864f5093aed71238e08e,23,Female,Right handed,2021-07-26_20h58.45.334,MA Experiment 2,2021.1.2,MacIntel,60.0024001,,,,,,0,13,13,30,1
1.0216,response_1,shortValid,VESSEL,MINISTER,,,,,,ATHLETE,IVORY,short,resources/sound/trials/audio_stim_comp57.mp3,60fd864f5093aed71238e08e,23,Female,Right handed,2021-07-26_20h58.45.334,MA Experiment 2,2021.1.2,MacIntel,60.0024001,2,31,99,5,1,,,,,
0.8878,response_1,shortValid,TORTURE,REFEREE,,,,,,CONCRETE,ENEMY,short,resources/sound/trials/audio_stim_human67.mp3,60fd864f5093aed71238e08e,23,Female,Right handed,2021-07-26_20h58.45.334,MA Experiment 2,2021.1.2,MacIntel,60.0024001,2,32,100,10,1,,,,,
1.8553,response_3,shortFoil,VILLAGE,INFECTION,,,,,,DAYLIGHT,MATERIAL,short,resources/sound/trials/audio_stim_human42.mp3,60fd864f5093aed71238e08e,23,Female,Right handed,2021-07-26_20h58.45.334,MA Experiment 2,2021.1.2,MacIntel,60.0024001,2,33,101,9,1,,,,,
1.5403,response_2,shortValid,NATIVE,AVENUE,,,,,,RUBBER,PROPERTY,short,resources/sound/trials/audio_stim_human0.mp3,60fd864f5093aed71238e08e,23,Female,Right handed,2021-07-26_20h58.45.334,MA Experiment 2,2021.1.2,MacIntel,60.0024001,3,0,102,12,1,,,,,
1.1531,response_2,longFoil,PIPING,GRASSHOPPER,,,,,,WORKER,VISITOR,short,resources/sound/trials/audio_stim_comp17.mp3,60fd864f5093aed71238e08e,23,Female,Right handed,2021-07-26_20h58.45.334,MA Experiment 2,2021.1.2,MacIntel,60.0024001,3,1,103,6,1,,,,,
1.539,response_1,longValid,KETTLE,CROCODILE,,,,,,ATHLETE,IVORY,short,resources/sound/trials/audio_stim_comp57.mp3,60fd864f5093aed71238e08e,23,Female,Right handed,2021-07-26_20h58.45.334,MA Experiment 2,2021.1.2,MacIntel,60.0024001,3,2,104,5,1,,,,,
2.0219,response_1,,GRADUATE,ANTIQUE,,,,,,POISON,REVOLVER,short,resources/sound/catchTrials/audio_control_human_project01.mp3,60fd864f5093aed71238e08e,23,Female,Right handed,2021-07-26_20h58.45.334,MA Experiment 2,2021.1.2,MacIntel,60.0024001,,,,,,0,23,23,9,1
1.656,response_2,longValid,CEREAL,MECHANIC,,,,,,SACRED,GALAXY,long,resources/sound/trials/audio_stim_comp1.mp3,60fd864f5093aed71238e08e,23,Female,Right handed,2021-07-26_20h58.45.334,MA Experiment 2,2021.1.2,MacIntel,60.0024001,3,3,105,24,1,,,,,
1.606,response_2,shortValid,NECKLACE,AMMONIA,,,,,,HARDWARE,OVERCOAT,short,resources/sound/trials/audio_stim_human35.mp3,60fd864f5093aed71238e08e,23,Female,Right handed,2021-07-26_20h58.45.334,MA Experiment 2,2021.1.2,MacIntel,60.0024001,3,4,106,8,1,,,,,
0.9892,response_2,shortValid,WRITING,GYMNASTICS,,,,,,DRIZZLE,CARDINAL,long,resources/sound/trials/audio_stim_comp69.mp3,60fd864f5093aed71238e08e,23,Female,Right handed,2021-07-26_20h58.45.334,MA Experiment 2,2021.1.2,MacIntel,60.0024001,3,5,107,17,1,,,,,
1.1039,response_1,shortValid,LEADER,TEMPERATURE,,,,,,MARBLE,CUSTOMER,short,resources/sound/trials/audio_stim_comp65.mp3,60fd864f5093aed71238e08e,23,Female,Right handed,2021-07-26_20h58.45.334,MA Experiment 2,2021.1.2,MacIntel,60.0024001,3,6,108,4,1,,,,,
1.271,response_2,,CIGAR,PROPELLER,,,,,,NAVY,RECTANGLE,short,resources/sound/catchTrials/audio_control_human_project06.mp3,60fd864f5093aed71238e08e,23,Female,Right handed,2021-07-26_20h58.45.334,MA Experiment 2,2021.1.2,MacIntel,60.0024001,,,,,,0,2,2,14,1
2.4388,response_1,shortFoil,UNCLE,ALCOHOL,,,,,,WHISTLE,TREASURER,long,resources/sound/trials/audio_stim_comp12.mp3,60fd864f5093aed71238e08e,23,Female,Right handed,2021-07-26_20h58.45.334,MA Experiment 2,2021.1.2,MacIntel,60.0024001,3,7,109,20,1,,,,,
1.0723,response_2,shortValid,DANCER,FACTORY,,,,,,BRAINSTORM,GREEN NEEDLE,long,resources/sound/trials/audio_stim_original.mp3,60fd864f5093aed71238e08e,23,Female,Right handed,2021-07-26_20h58.45.334,MA Experiment 2,2021.1.2,MacIntel,60.0024001,3,8,110,33,1,,,,,
1.8059,response_1,shortValid,PICTURE,LEMONADE,,,,,,WORKER,VISITOR,long,resources/sound/trials/audio_stim_comp17.mp3,60fd864f5093aed71238e08e,23,Female,Right handed,2021-07-26_20h58.45.334,MA Experiment 2,2021.1.2,MacIntel,60.0024001,3,9,111,23,1,,,,,
2.1553,response_1,longFoil,CAPTAIN,CANDLELIGHT,,,,,,WHISTLE,TREASURER,short,resources/sound/trials/audio_stim_comp12.mp3,60fd864f5093aed71238e08e,23,Female,Right handed,2021-07-26_20h58.45.334,MA Experiment 2,2021.1.2,MacIntel,60.0024001,3,10,112,3,1,,,,,
1.687,response_2,,OLIVE,POTATO,,,,,,HOBBY,COLONY,short,resources/sound/catchTrials/audio_control_comp_project04.mp3,60fd864f5093aed71238e08e,23,Female,Right handed,2021-07-26_20h58.45.334,MA Experiment 2,2021.1.2,MacIntel,60.0024001,,,,,,0,10,10,2,1
2.4252,response_2,shortValid,LOBSTER,MERCURY,,,,,,SACRED,GALAXY,short,resources/sound/trials/audio_stim_comp1.mp3,60fd864f5093aed71238e08e,23,Female,Right handed,2021-07-26_20h58.45.334,MA Experiment 2,2021.1.2,MacIntel,60.0024001,3,11,113,7,1,,,,,
2.8895,response_1,shortFoil,CHIPMUNK,PHYSICIAN,,,,,,PAINTER,VEHICLE,long,resources/sound/trials/audio_stim_human47.mp3,60fd864f5093aed71238e08e,23,Female,Right handed,2021-07-26_20h58.45.334,MA Experiment 2,2021.1.2,MacIntel,60.0024001,3,12,114,28,1,,,,,
1.2217,response_2,shortFoil,PATIENT,ALPHABET,,,,,,RECEIPT,LIMOUSINE,long,resources/sound/trials/audio_stim_comp40.mp3,60fd864f5093aed71238e08e,23,Female,Right handed,2021-07-26_20h58.45.334,MA Experiment 2,2021.1.2,MacIntel,60.0024001,3,13,115,19,1,,,,,
1.8226,response_2,shortFoil,MOONLIGHT,INTERVIEW,,,,,,ROBBER,RATTLESNAKE,long,resources/sound/trials/audio_stim_human64.mp3,60fd864f5093aed71238e08e,23,Female,Right handed,2021-07-26_20h58.45.334,MA Experiment 2,2021.1.2,MacIntel,60.0024001,3,14,116,32,1,,,,,
1.5065,response_2,,HAMMER,CATHEDRAL,,,,,,IRIS,VIOLIN,short,resources/sound/catchTrials/audio_control_comp_project12.mp3,60fd864f5093aed71238e08e,23,Female,Right handed,2021-07-26_20h58.45.334,MA Experiment 2,2021.1.2,MacIntel,60.0024001,,,,,,0,0,0,4,1
1.5047,response_1,longValid,RUSTY,OPENING,,,,,,PARTY,SANCTUARY,short,resources/sound/trials/audio_stim_human50.mp3,60fd864f5093aed71238e08e,23,Female,Right handed,2021-07-26_20h58.45.334,MA Experiment 2,2021.1.2,MacIntel,60.0024001,3,15,117,14,1,,,,,
2.5061,response_2,shortValid,RABBI,MEDICINE,,,,,,RUBBER,PROPERTY,long,resources/sound/trials/audio_stim_human0.mp3,60fd864f5093aed71238e08e,23,Female,Right handed,2021-07-26_20h58.45.334,MA Experiment 2,2021.1.2,MacIntel,60.0024001,3,16,118,29,1,,,,,
1.2069,response_1,shortValid,BUTTER,GOVERNMENT,,,,,,PARTY,SANCTUARY,long,resources/sound/trials/audio_stim_human50.mp3,60fd864f5093aed71238e08e,23,Female,Right handed,2021-07-26_20h58.45.334,MA Experiment 2,2021.1.2,MacIntel,60.0024001,3,17,119,31,1,,,,,
1.1049,response_2,shortValid,DIAL,ATHLETICS,,,,,,HARDWARE,OVERCOAT,long,resources/sound/trials/audio_stim_human35.mp3,60fd864f5093aed71238e08e,23,Female,Right handed,2021-07-26_20h58.45.334,MA Experiment 2,2021.1.2,MacIntel,60.0024001,3,18,120,25,1,,,,,
0.8895,response_1,,DWELLER,CIGARETTE,,,,,,VIOLET,LUBRICANT,long,resources/sound/catchTrials/audio_control_comp_project07.mp3,60fd864f5093aed71238e08e,23,Female,Right handed,2021-07-26_20h58.45.334,MA Experiment 2,2021.1.2,MacIntel,60.0024001,,,,,,0,29,29,19,1
1.7537,response_2,longFoil,MURDER,INJURY,,,,,,MINER,EMERALD,long,resources/sound/trials/audio_stim_comp6.mp3,60fd864f5093aed71238e08e,23,Female,Right handed,2021-07-26_20h58.45.334,MA Experiment 2,2021.1.2,MacIntel,60.0024001,3,19,121,18,1,,,,,
1.6771,response_1,shortFoil,STATION,LECTURER,,,,,,MINER,EMERALD,long,resources/sound/trials/audio_stim_human6.mp3,60fd864f5093aed71238e08e,23,Female,Right handed,2021-07-26_20h58.45.334,MA Experiment 2,2021.1.2,MacIntel,60.0024001,3,20,122,30,1,,,,,
1.4539,response_2,longValid,FAIRY,MICROSCOPE,,,,,,ROBBER,RATTLESNAKE,short,resources/sound/trials/audio_stim_human64.mp3,60fd864f5093aed71238e08e,23,Female,Right handed,2021-07-26_20h58.45.334,MA Experiment 2,2021.1.2,MacIntel,60.0024001,3,21,123,15,1,,,,,
1.7746,response_2,shortValid,SCOOTER,AMBULANCE,,,,,,CONCRETE,ENEMY,long,resources/sound/trials/audio_stim_human67.mp3,60fd864f5093aed71238e08e,23,Female,Right handed,2021-07-26_20h58.45.334,MA Experiment 2,2021.1.2,MacIntel,60.0024001,3,22,124,27,1,,,,,
1.4384,response_1,,STOCKING,HONEYMOON,,,,,,VIOLET,LUBRICANT,long,resources/sound/catchTrials/audio_control_human_project07.mp3,60fd864f5093aed71238e08e,23,Female,Right handed,2021-07-26_20h58.45.334,MA Experiment 2,2021.1.2,MacIntel,60.0024001,,,,,,0,9,9,28,1
2.4895,response_2,longFoil,VAPOUR,DISSECTION,,,,,,RECEIPT,LIMOUSINE,short,resources/sound/trials/audio_stim_comp40.mp3,60fd864f5093aed71238e08e,23,Female,Right handed,2021-07-26_20h58.45.334,MA Experiment 2,2021.1.2,MacIntel,60.0024001,3,23,125,2,1,,,,,
2.0237,response_2,shortFoil,SHEEPSKIN,POLIO,,,,,,BRAINSTORM,GREEN NEEDLE,short,resources/sound/trials/audio_stim_original.mp3,60fd864f5093aed71238e08e,23,Female,Right handed,2021-07-26_20h58.45.334,MA Experiment 2,2021.1.2,MacIntel,60.0024001,3,24,126,16,1,,,,,
1.655,response_2,longFoil,PODIUM,HOSPITAL,,,,,,DAYLIGHT,MATERIAL,short,resources/sound/trials/audio_stim_human42.mp3,60fd864f5093aed71238e08e,23,Female,Right handed,2021-07-26_20h58.45.334,MA Experiment 2,2021.1.2,MacIntel,60.0024001,3,25,127,9,1,,,,,
1.439,response_1,longFoil,POLO,ADMIRAL,,,,,,PAINTER,VEHICLE,short,resources/sound/trials/audio_stim_human47.mp3,60fd864f5093aed71238e08e,23,Female,Right handed,2021-07-26_20h58.45.334,MA Experiment 2,2021.1.2,MacIntel,60.0024001,3,26,128,11,1,,,,,
1.2054,response_2,,KERNEL,GORILLA,,,,,,CORNER,ENGINEER,short,resources/sound/catchTrials/audio_control_human_project14.mp3,60fd864f5093aed71238e08e,23,Female,Right handed,2021-07-26_20h58.45.334,MA Experiment 2,2021.1.2,MacIntel,60.0024001,,,,,,0,26,26,10,1
1.9375,response_1,shortFoil,TUMBLE,NEWSPAPER,,,,,,CONCRETE,ENEMY,short,resources/sound/trials/audio_stim_human67.mp3,60fd864f5093aed71238e08e,23,Female,Right handed,2021-07-26_20h58.45.334,MA Experiment 2,2021.1.2,MacIntel,60.0024001,3,27,129,10,1,,,,,
1.8565,response_2,shortFoil,NAPKIN,VINEGAR,,,,,,MINER,EMERALD,short,resources/sound/trials/audio_stim_comp6.mp3,60fd864f5093aed71238e08e,23,Female,Right handed,2021-07-26_20h58.45.334,MA Experiment 2,2021.1.2,MacIntel,60.0024001,3,28,130,1,1,,,,,
1.9429,response_2,shortFoil,VALLEY,MONUMENT,,,,,,MINER,EMERALD,short,resources/sound/trials/audio_stim_human6.mp3,60fd864f5093aed71238e08e,23,Female,Right handed,2021-07-26_20h58.45.334,MA Experiment 2,2021.1.2,MacIntel,60.0024001,3,29,131,13,1,,,,,
1.7728,response_1,shortValid,WAFER,POLICEMAN,,,,,,DAYLIGHT,MATERIAL,long,resources/sound/trials/audio_stim_human42.mp3,60fd864f5093aed71238e08e,23,Female,Right handed,2021-07-26_20h58.45.334,MA Experiment 2,2021.1.2,MacIntel,60.0024001,3,30,132,26,1,,,,,
1.789,response_2,,OFFICE,PROFESSOR,,,,,,HOBBY,COLONY,long,resources/sound/catchTrials/audio_control_comp_project04.mp3,60fd864f5093aed71238e08e,23,Female,Right handed,2021-07-26_20h58.45.334,MA Experiment 2,2021.1.2,MacIntel,60.0024001,,,,,,0,21,21,18,1
1.2727,response_1,shortFoil,JURY,PHOTOGRAPH,,,,,,MARBLE,CUSTOMER,long,resources/sound/trials/audio_stim_comp65.mp3,60fd864f5093aed71238e08e,23,Female,Right handed,2021-07-26_20h58.45.334,MA Experiment 2,2021.1.2,MacIntel,60.0024001,3,31,133,21,1,,,,,
1.7223,response_1,longValid,LIQUID,ATTENDANT,,,,,,ATHLETE,IVORY,long,resources/sound/trials/audio_stim_comp57.mp3,60fd864f5093aed71238e08e,23,Female,Right handed,2021-07-26_20h58.45.334,MA Experiment 2,2021.1.2,MacIntel,60.0024001,3,32,134,22,1,,,,,
1.1229,response_1,shortValid,TEMPLE,PROJECTOR,,,,,,DRIZZLE,CARDINAL,short,resources/sound/trials/audio_stim_comp69.mp3,60fd864f5093aed71238e08e,23,Female,Right handed,2021-07-26_20h58.45.334,MA Experiment 2,2021.1.2,MacIntel,60.0024001,3,33,135,0,1,,,,,
