response.time,response,cueTarget,rand_foil_1,rand_foil_2,prac_trials.thisRepN,prac_trials.thisTrialN,prac_trials.thisN,prac_trials.thisIndex,prac_trials.ran,word_1,word_2,cue,file_path,participant,age,gender,handedness,date,expName,psychopyVersion,OS,frameRate,trials.thisRepN,trials.thisTrialN,trials.thisN,trials.thisIndex,trials.ran,catchTrials.thisRepN,catchTrials.thisTrialN,catchTrials.thisN,catchTrials.thisIndex,catchTrials.ran
1.71786,response_2,shortValid,KENNEL,GINGERBREAD,0,0,0,5,1,NONSENSE,OASIS,short,resources/sound/prac_trials/practice_cue_human5.mp3,60fd28d6778168a8cd975fc6,22,Female,Right handed,2021-07-26_20h49.03.708,MA Experiment 2,2021.1.2,Win32,57.7700751,,,,,,,,,,
1.317645,response_2,longValid,MURDER,MOSQUITO,0,1,1,4,1,FIZZY,ELECTRIC,short,resources/sound/prac_trials/practice_cue4.mp3,60fd28d6778168a8cd975fc6,22,Female,Right handed,2021-07-26_20h49.03.708,MA Experiment 2,2021.1.2,Win32,57.7700751,,,,,,,,,,
0.82115,response_2,longFoil,TRAITOR,EMULSION,0,2,2,6,1,VACANT,SALVATION,long,resources/sound/prac_trials/practice_cue6.mp3,60fd28d6778168a8cd975fc6,22,Female,Right handed,2021-07-26_20h49.03.708,MA Experiment 2,2021.1.2,Win32,57.7700751,,,,,,,,,,
1.02023,response_1,longFoil,SODA,HANDKERCHIEF,0,3,3,2,1,RECENT,TOBACCO,short,resources/sound/prac_trials/practice_cue2.mp3,60fd28d6778168a8cd975fc6,22,Female,Right handed,2021-07-26_20h49.03.708,MA Experiment 2,2021.1.2,Win32,57.7700751,,,,,,,,,,
0.956165,response_2,shortFoil,NURSERY,INFECTION,0,4,4,11,1,KETCHUP,GONDOLA,long,resources/sound/prac_trials/practice_cue_human11.mp3,60fd28d6778168a8cd975fc6,22,Female,Right handed,2021-07-26_20h49.03.708,MA Experiment 2,2021.1.2,Win32,57.7700751,,,,,,,,,,
1.179415,response_2,shortFoil,WAFER,HONEYMOON,0,5,5,10,1,SAFFRON,JAVELIN,long,resources/sound/prac_trials/practice_cue10.mp3,60fd28d6778168a8cd975fc6,22,Female,Right handed,2021-07-26_20h49.03.708,MA Experiment 2,2021.1.2,Win32,57.7700751,,,,,,,,,,
1.20939,response_1,longValid,BURNER,RETAILER,0,6,6,1,1,CABLE,REPUBLIC,short,resources/sound/prac_trials/practice_cue_human1.mp3,60fd28d6778168a8cd975fc6,22,Female,Right handed,2021-07-26_20h49.03.708,MA Experiment 2,2021.1.2,Win32,57.7700751,,,,,,,,,,
1.6369,response_2,shortValid,TUMBLE,TANGERINE,0,7,7,7,1,BUCKLE,WALLABY,long,resources/sound/prac_trials/practice_cue_human7.mp3,60fd28d6778168a8cd975fc6,22,Female,Right handed,2021-07-26_20h49.03.708,MA Experiment 2,2021.1.2,Win32,57.7700751,,,,,,,,,,
1.10523,response_2,shortValid,JURY,OXYGEN,0,8,8,9,1,GRUMPY,LABYRINTH,long,resources/sound/prac_trials/practice_cue_human9.mp3,60fd28d6778168a8cd975fc6,22,Female,Right handed,2021-07-26_20h49.03.708,MA Experiment 2,2021.1.2,Win32,57.7700751,,,,,,,,,,
0.801015,response_2,longValid,MEDICINE,INJURY,0,9,9,8,1,DAGGER,EMPHASIS,long,resources/sound/prac_trials/practice_cue8.mp3,60fd28d6778168a8cd975fc6,22,Female,Right handed,2021-07-26_20h49.03.708,MA Experiment 2,2021.1.2,Win32,57.7700751,,,,,,,,,,
1.172585,response_1,longValid,WIRE,CAMERA,0,10,10,3,1,EAGER,QUALIFY,short,resources/sound/prac_trials/practice_cue_human3.mp3,60fd28d6778168a8cd975fc6,22,Female,Right handed,2021-07-26_20h49.03.708,MA Experiment 2,2021.1.2,Win32,57.7700751,,,,,,,,,,
0.94897,response_3,shortFoil,PERSON,HEADQUARTERS,0,11,11,0,1,AARDVARK,FALLACY,short,resources/sound/prac_trials/practice_cue0.mp3,60fd28d6778168a8cd975fc6,22,Female,Right handed,2021-07-26_20h49.03.708,MA Experiment 2,2021.1.2,Win32,57.7700751,,,,,,,,,,
0.79758,response_2,shortFoil,CHIPMUNK,INDUSTRY,,,,,,PAINTER,VEHICLE,short,resources/sound/trials/audio_stim_human47.mp3,60fd28d6778168a8cd975fc6,22,Female,Right handed,2021-07-26_20h49.03.708,MA Experiment 2,2021.1.2,Win32,57.7700751,0,0,0,11,1,,,,,
0.95795,response_3,longValid,PICTURE,CATHEDRAL,,,,,,RECEIPT,LIMOUSINE,long,resources/sound/trials/audio_stim_comp40.mp3,60fd28d6778168a8cd975fc6,22,Female,Right handed,2021-07-26_20h49.03.708,MA Experiment 2,2021.1.2,Win32,57.7700751,0,1,1,19,1,,,,,
0.86788,response_2,longValid,LEADER,MINISTER,,,,,,RUBBER,PROPERTY,short,resources/sound/trials/audio_stim_human0.mp3,60fd28d6778168a8cd975fc6,22,Female,Right handed,2021-07-26_20h49.03.708,MA Experiment 2,2021.1.2,Win32,57.7700751,0,2,2,12,1,,,,,
0.93002,response_2,,MISTRESS,CONVENTION,,,,,,ICY,JITTERBUG,long,resources/sound/catchTrials/audio_control_comp_project08.mp3,60fd28d6778168a8cd975fc6,22,Female,Right handed,2021-07-26_20h49.03.708,MA Experiment 2,2021.1.2,Win32,57.7700751,,,,,,0,5,5,23,1
1.31566,response_1,longValid,CABIN,FISHERMAN,,,,,,ATHLETE,IVORY,short,resources/sound/trials/audio_stim_comp57.mp3,60fd28d6778168a8cd975fc6,22,Female,Right handed,2021-07-26_20h49.03.708,MA Experiment 2,2021.1.2,Win32,57.7700751,0,3,3,5,1,,,,,
1.11456,response_2,shortValid,PATIENT,PROJECTOR,,,,,,PARTY,SANCTUARY,long,resources/sound/trials/audio_stim_human50.mp3,60fd28d6778168a8cd975fc6,22,Female,Right handed,2021-07-26_20h49.03.708,MA Experiment 2,2021.1.2,Win32,57.7700751,0,4,4,31,1,,,,,
1.175865,response_4,longFoil,FATHER,FURNITURE,,,,,,WHISTLE,TREASURER,long,resources/sound/trials/audio_stim_comp12.mp3,60fd28d6778168a8cd975fc6,22,Female,Right handed,2021-07-26_20h49.03.708,MA Experiment 2,2021.1.2,Win32,57.7700751,0,5,5,20,1,,,,,
1.086465,response_2,shortValid,OFFICE,JANITOR,,,,,,MARBLE,CUSTOMER,short,resources/sound/trials/audio_stim_comp65.mp3,60fd28d6778168a8cd975fc6,22,Female,Right handed,2021-07-26_20h49.03.708,MA Experiment 2,2021.1.2,Win32,57.7700751,0,6,6,4,1,,,,,
0.956715,response_2,,LIQUID,ACROBAT,,,,,,IRIS,VIOLIN,short,resources/sound/catchTrials/audio_control_human_project12.mp3,60fd28d6778168a8cd975fc6,22,Female,Right handed,2021-07-26_20h49.03.708,MA Experiment 2,2021.1.2,Win32,57.7700751,,,,,,0,11,11,8,1
0.873625,response_2,shortValid,SULPHUR,INSTRUCTOR,,,,,,ROBBER,RATTLESNAKE,long,resources/sound/trials/audio_stim_human64.mp3,60fd28d6778168a8cd975fc6,22,Female,Right handed,2021-07-26_20h49.03.708,MA Experiment 2,2021.1.2,Win32,57.7700751,0,7,7,32,1,,,,,
1.22706,response_3,shortFoil,HURDLE,ORNAMENT,,,,,,HARDWARE,OVERCOAT,long,resources/sound/trials/audio_stim_human35.mp3,60fd28d6778168a8cd975fc6,22,Female,Right handed,2021-07-26_20h49.03.708,MA Experiment 2,2021.1.2,Win32,57.7700751,0,8,8,25,1,,,,,
1.40113,response_2,shortFoil,WINDOW,MINERAL,,,,,,CONCRETE,ENEMY,short,resources/sound/trials/audio_stim_human67.mp3,60fd28d6778168a8cd975fc6,22,Female,Right handed,2021-07-26_20h49.03.708,MA Experiment 2,2021.1.2,Win32,57.7700751,0,9,9,10,1,,,,,
0.78721,response_1,shortFoil,WALRUS,ALCOHOL,,,,,,DRIZZLE,CARDINAL,short,resources/sound/trials/audio_stim_comp69.mp3,60fd28d6778168a8cd975fc6,22,Female,Right handed,2021-07-26_20h49.03.708,MA Experiment 2,2021.1.2,Win32,57.7700751,0,10,10,0,1,,,,,
1.29536,response_2,,VAPOUR,STRAWBERRY,,,,,,HOBBY,COLONY,short,resources/sound/catchTrials/audio_control_comp_project04.mp3,60fd28d6778168a8cd975fc6,22,Female,Right handed,2021-07-26_20h49.03.708,MA Experiment 2,2021.1.2,Win32,57.7700751,,,,,,0,25,25,2,1
3.053895,response_1,shortFoil,STOCKING,BUTTERFLY,,,,,,MINER,EMERALD,short,resources/sound/trials/audio_stim_human6.mp3,60fd28d6778168a8cd975fc6,22,Female,Right handed,2021-07-26_20h49.03.708,MA Experiment 2,2021.1.2,Win32,57.7700751,0,11,11,13,1,,,,,
1.16626,response_1,longFoil,SINGER,MECHANIC,,,,,,DAYLIGHT,MATERIAL,short,resources/sound/trials/audio_stim_human42.mp3,60fd28d6778168a8cd975fc6,22,Female,Right handed,2021-07-26_20h49.03.708,MA Experiment 2,2021.1.2,Win32,57.7700751,0,12,12,9,1,,,,,
1.391185,response_2,shortValid,SHOULDER,AMBULANCE,,,,,,PARTY,SANCTUARY,short,resources/sound/trials/audio_stim_human50.mp3,60fd28d6778168a8cd975fc6,22,Female,Right handed,2021-07-26_20h49.03.708,MA Experiment 2,2021.1.2,Win32,57.7700751,0,13,13,14,1,,,,,
1.431165,response_1,shortFoil,INCOME,HURRICANE,,,,,,MINER,EMERALD,short,resources/sound/trials/audio_stim_comp6.mp3,60fd28d6778168a8cd975fc6,22,Female,Right handed,2021-07-26_20h49.03.708,MA Experiment 2,2021.1.2,Win32,57.7700751,0,14,14,1,1,,,,,
1.07421,response_1,,PIPING,ASBESTOS,,,,,,VIOLET,LUBRICANT,long,resources/sound/catchTrials/audio_control_comp_project07.mp3,60fd28d6778168a8cd975fc6,22,Female,Right handed,2021-07-26_20h49.03.708,MA Experiment 2,2021.1.2,Win32,57.7700751,,,,,,0,1,1,19,1
0.917285,response_2,shortValid,POLO,CARNATION,,,,,,WORKER,VISITOR,long,resources/sound/trials/audio_stim_comp17.mp3,60fd28d6778168a8cd975fc6,22,Female,Right handed,2021-07-26_20h49.03.708,MA Experiment 2,2021.1.2,Win32,57.7700751,0,15,15,23,1,,,,,
1.17113,response_1,shortFoil,CURFEW,POLICEMAN,,,,,,DRIZZLE,CARDINAL,long,resources/sound/trials/audio_stim_comp69.mp3,60fd28d6778168a8cd975fc6,22,Female,Right handed,2021-07-26_20h49.03.708,MA Experiment 2,2021.1.2,Win32,57.7700751,0,16,16,17,1,,,,,
1.052975,response_2,shortValid,ANCHOR,FACTORY,,,,,,WORKER,VISITOR,short,resources/sound/trials/audio_stim_comp17.mp3,60fd28d6778168a8cd975fc6,22,Female,Right handed,2021-07-26_20h49.03.708,MA Experiment 2,2021.1.2,Win32,57.7700751,0,17,17,6,1,,,,,
1.36493,response_2,longFoil,LOBSTER,APPLIANCE,,,,,,RECEIPT,LIMOUSINE,short,resources/sound/trials/audio_stim_comp40.mp3,60fd28d6778168a8cd975fc6,22,Female,Right handed,2021-07-26_20h49.03.708,MA Experiment 2,2021.1.2,Win32,57.7700751,0,18,18,2,1,,,,,
0.91819,response_2,,VILLAGE,PHYSICIAN,,,,,,IRIS,VIOLIN,short,resources/sound/catchTrials/audio_control_comp_project12.mp3,60fd28d6778168a8cd975fc6,22,Female,Right handed,2021-07-26_20h49.03.708,MA Experiment 2,2021.1.2,Win32,57.7700751,,,,,,0,28,28,4,1
1.516905,response_1,longFoil,HAMMER,INSTRUMENT,,,,,,SACRED,GALAXY,long,resources/sound/trials/audio_stim_comp1.mp3,60fd28d6778168a8cd975fc6,22,Female,Right handed,2021-07-26_20h49.03.708,MA Experiment 2,2021.1.2,Win32,57.7700751,0,19,19,24,1,,,,,
1.40032,response_1,shortValid,CRYSTAL,PROFESSOR,,,,,,MARBLE,CUSTOMER,long,resources/sound/trials/audio_stim_comp65.mp3,60fd28d6778168a8cd975fc6,22,Female,Right handed,2021-07-26_20h49.03.708,MA Experiment 2,2021.1.2,Win32,57.7700751,0,20,20,21,1,,,,,
0.70499,response_1,shortFoil,PRINCESS,MICROSCOPE,,,,,,SACRED,GALAXY,short,resources/sound/trials/audio_stim_comp1.mp3,60fd28d6778168a8cd975fc6,22,Female,Right handed,2021-07-26_20h49.03.708,MA Experiment 2,2021.1.2,Win32,57.7700751,0,21,21,7,1,,,,,
0.6513,response_1,longValid,MOONLIGHT,DISSECTION,,,,,,CONCRETE,ENEMY,long,resources/sound/trials/audio_stim_human67.mp3,60fd28d6778168a8cd975fc6,22,Female,Right handed,2021-07-26_20h49.03.708,MA Experiment 2,2021.1.2,Win32,57.7700751,0,22,22,27,1,,,,,
1.182025,response_2,,NECKLACE,LEMONADE,,,,,,NAVY,RECTANGLE,long,resources/sound/catchTrials/audio_control_comp_project06.mp3,60fd28d6778168a8cd975fc6,22,Female,Right handed,2021-07-26_20h49.03.708,MA Experiment 2,2021.1.2,Win32,57.7700751,,,,,,0,19,19,22,1
1.271855,response_2,longFoil,NATIVE,FIREWOOD,,,,,,WHISTLE,TREASURER,short,resources/sound/trials/audio_stim_comp12.mp3,60fd28d6778168a8cd975fc6,22,Female,Right handed,2021-07-26_20h49.03.708,MA Experiment 2,2021.1.2,Win32,57.7700751,0,23,23,3,1,,,,,
1.34959,response_2,longFoil,LIGHTNING,NEWSPAPER,,,,,,HARDWARE,OVERCOAT,short,resources/sound/trials/audio_stim_human35.mp3,60fd28d6778168a8cd975fc6,22,Female,Right handed,2021-07-26_20h49.03.708,MA Experiment 2,2021.1.2,Win32,57.7700751,0,24,24,8,1,,,,,
1.66283,response_2,shortFoil,MORNING,REFEREE,,,,,,BRAINSTORM,GREEN NEEDLE,short,resources/sound/trials/audio_stim_original.mp3,60fd28d6778168a8cd975fc6,22,Female,Right handed,2021-07-26_20h49.03.708,MA Experiment 2,2021.1.2,Win32,57.7700751,0,25,25,16,1,,,,,
1.504535,response_1,longValid,KERNEL,ALPHABET,,,,,,DAYLIGHT,MATERIAL,long,resources/sound/trials/audio_stim_human42.mp3,60fd28d6778168a8cd975fc6,22,Female,Right handed,2021-07-26_20h49.03.708,MA Experiment 2,2021.1.2,Win32,57.7700751,0,26,26,26,1,,,,,
1.018835,response_2,,STATION,MEDICINE,,,,,,CORNER,ENGINEER,short,resources/sound/catchTrials/audio_control_human_project14.mp3,60fd28d6778168a8cd975fc6,22,Female,Right handed,2021-07-26_20h49.03.708,MA Experiment 2,2021.1.2,Win32,57.7700751,,,,,,0,14,14,10,1
0.958075,response_2,longFoil,INVOICE,ANTIQUE,,,,,,ROBBER,RATTLESNAKE,short,resources/sound/trials/audio_stim_human64.mp3,60fd28d6778168a8cd975fc6,22,Female,Right handed,2021-07-26_20h49.03.708,MA Experiment 2,2021.1.2,Win32,57.7700751,0,27,27,15,1,,,,,
1.25267,response_1,shortFoil,BEETLE,COMMITTEE,,,,,,MINER,EMERALD,long,resources/sound/trials/audio_stim_comp6.mp3,60fd28d6778168a8cd975fc6,22,Female,Right handed,2021-07-26_20h49.03.708,MA Experiment 2,2021.1.2,Win32,57.7700751,0,28,28,18,1,,,,,
0.967,response_2,shortValid,DIAL,DESTROYER,,,,,,RUBBER,PROPERTY,long,resources/sound/trials/audio_stim_human0.mp3,60fd28d6778168a8cd975fc6,22,Female,Right handed,2021-07-26_20h49.03.708,MA Experiment 2,2021.1.2,Win32,57.7700751,0,29,29,29,1,,,,,
1.23406,response_2,longFoil,BERRY,LECTURER,,,,,,PAINTER,VEHICLE,long,resources/sound/trials/audio_stim_human47.mp3,60fd28d6778168a8cd975fc6,22,Female,Right handed,2021-07-26_20h49.03.708,MA Experiment 2,2021.1.2,Win32,57.7700751,0,30,30,28,1,,,,,
1.04966,response_1,,MUSCLE,AMMONIA,,,,,,VIOLET,LUBRICANT,long,resources/sound/catchTrials/audio_control_human_project07.mp3,60fd28d6778168a8cd975fc6,22,Female,Right handed,2021-07-26_20h49.03.708,MA Experiment 2,2021.1.2,Win32,57.7700751,,,,,,0,21,21,28,1
1.31588,response_2,longFoil,CANTEEN,HEROIN,,,,,,BRAINSTORM,GREEN NEEDLE,long,resources/sound/trials/audio_stim_original.mp3,60fd28d6778168a8cd975fc6,22,Female,Right handed,2021-07-26_20h49.03.708,MA Experiment 2,2021.1.2,Win32,57.7700751,0,31,31,33,1,,,,,
0.918525,response_2,longValid,RUSTY,SAXOPHONE,,,,,,MINER,EMERALD,long,resources/sound/trials/audio_stim_human6.mp3,60fd28d6778168a8cd975fc6,22,Female,Right handed,2021-07-26_20h49.03.708,MA Experiment 2,2021.1.2,Win32,57.7700751,0,32,32,30,1,,,,,
0.956805,response_1,longFoil,UNCLE,FAMILY,,,,,,ATHLETE,IVORY,long,resources/sound/trials/audio_stim_comp57.mp3,60fd28d6778168a8cd975fc6,22,Female,Right handed,2021-07-26_20h49.03.708,MA Experiment 2,2021.1.2,Win32,57.7700751,0,33,33,22,1,,,,,
1.73918,response_1,shortFoil,OLIVE,GRASSHOPPER,,,,,,PARTY,SANCTUARY,long,resources/sound/trials/audio_stim_human50.mp3,60fd28d6778168a8cd975fc6,22,Female,Right handed,2021-07-26_20h49.03.708,MA Experiment 2,2021.1.2,Win32,57.7700751,1,0,34,31,1,,,,,
0.98917,response_1,longFoil,DANCER,HOSPITAL,,,,,,DAYLIGHT,MATERIAL,long,resources/sound/trials/audio_stim_human42.mp3,60fd28d6778168a8cd975fc6,22,Female,Right handed,2021-07-26_20h49.03.708,MA Experiment 2,2021.1.2,Win32,57.7700751,1,1,35,26,1,,,,,
0.652085,response_1,shortValid,HAMSTER,ABDOMEN,,,,,,MINER,EMERALD,short,resources/sound/trials/audio_stim_comp6.mp3,60fd28d6778168a8cd975fc6,22,Female,Right handed,2021-07-26_20h49.03.708,MA Experiment 2,2021.1.2,Win32,57.7700751,1,2,36,1,1,,,,,
0.7731,response_2,,PIANO,OPENING,,,,,,HOBBY,COLONY,long,resources/sound/catchTrials/audio_control_comp_project04.mp3,60fd28d6778168a8cd975fc6,22,Female,Right handed,2021-07-26_20h49.03.708,MA Experiment 2,2021.1.2,Win32,57.7700751,,,,,,0,20,20,18,1
1.58027,response_1,shortFoil,SOFA,POTATO,,,,,,CONCRETE,ENEMY,long,resources/sound/trials/audio_stim_human67.mp3,60fd28d6778168a8cd975fc6,22,Female,Right handed,2021-07-26_20h49.03.708,MA Experiment 2,2021.1.2,Win32,57.7700751,1,3,37,27,1,,,,,
0.972935,response_1,longValid,KETTLE,GOVERNMENT,,,,,,ATHLETE,IVORY,long,resources/sound/trials/audio_stim_comp57.mp3,60fd28d6778168a8cd975fc6,22,Female,Right handed,2021-07-26_20h49.03.708,MA Experiment 2,2021.1.2,Win32,57.7700751,1,4,38,22,1,,,,,
0.953505,response_2,longValid,TORTURE,CROCODILE,,,,,,SACRED,GALAXY,short,resources/sound/trials/audio_stim_comp1.mp3,60fd28d6778168a8cd975fc6,22,Female,Right handed,2021-07-26_20h49.03.708,MA Experiment 2,2021.1.2,Win32,57.7700751,1,5,39,7,1,,,,,
0.96795,response_2,longValid,CIGAR,AVENUE,,,,,,BRAINSTORM,GREEN NEEDLE,short,resources/sound/trials/audio_stim_original.mp3,60fd28d6778168a8cd975fc6,22,Female,Right handed,2021-07-26_20h49.03.708,MA Experiment 2,2021.1.2,Win32,57.7700751,1,6,40,16,1,,,,,
1.320355,response_2,,CAPTAIN,INSTITUTE,,,,,,NAVY,RECTANGLE,short,resources/sound/catchTrials/audio_control_human_project06.mp3,60fd28d6778168a8cd975fc6,22,Female,Right handed,2021-07-26_20h49.03.708,MA Experiment 2,2021.1.2,Win32,57.7700751,,,,,,0,0,0,14,1
1.36485,response_1,longValid,SHEEPSKIN,MONUMENT,,,,,,WORKER,VISITOR,long,resources/sound/trials/audio_stim_comp17.mp3,60fd28d6778168a8cd975fc6,22,Female,Right handed,2021-07-26_20h49.03.708,MA Experiment 2,2021.1.2,Win32,57.7700751,1,7,41,23,1,,,,,
1.17385,response_2,longValid,DIVING,PHOTOGRAPH,,,,,,ROBBER,RATTLESNAKE,long,resources/sound/trials/audio_stim_human64.mp3,60fd28d6778168a8cd975fc6,22,Female,Right handed,2021-07-26_20h49.03.708,MA Experiment 2,2021.1.2,Win32,57.7700751,1,8,42,32,1,,,,,
1.89824,response_1,shortFoil,HARBOUR,UMBRELLA,,,,,,RECEIPT,LIMOUSINE,short,resources/sound/trials/audio_stim_comp40.mp3,60fd28d6778168a8cd975fc6,22,Female,Right handed,2021-07-26_20h49.03.708,MA Experiment 2,2021.1.2,Win32,57.7700751,1,9,43,2,1,,,,,
1.23809,response_1,longValid,SEGMENT,CLARINET,,,,,,CONCRETE,ENEMY,short,resources/sound/trials/audio_stim_human67.mp3,60fd28d6778168a8cd975fc6,22,Female,Right handed,2021-07-26_20h49.03.708,MA Experiment 2,2021.1.2,Win32,57.7700751,1,10,44,10,1,,,,,
1.0365,response_1,,DUEL,INTERVIEW,,,,,,JUGGLER,DANDELION,long,resources/sound/catchTrials/audio_control_human_project09.mp3,60fd28d6778168a8cd975fc6,22,Female,Right handed,2021-07-26_20h49.03.708,MA Experiment 2,2021.1.2,Win32,57.7700751,,,,,,0,10,10,31,1
0.696725,response_1,shortFoil,MEASLES,CIGARETTE,,,,,,ATHLETE,IVORY,short,resources/sound/trials/audio_stim_comp57.mp3,60fd28d6778168a8cd975fc6,22,Female,Right handed,2021-07-26_20h49.03.708,MA Experiment 2,2021.1.2,Win32,57.7700751,1,11,45,5,1,,,,,
1.13857,response_2,longFoil,BISHOP,POLIO,,,,,,MINER,EMERALD,long,resources/sound/trials/audio_stim_comp6.mp3,60fd28d6778168a8cd975fc6,22,Female,Right handed,2021-07-26_20h49.03.708,MA Experiment 2,2021.1.2,Win32,57.7700751,1,12,46,18,1,,,,,
0.96585,response_1,longFoil,DWELLER,CHOCOLATE,,,,,,DRIZZLE,CARDINAL,short,resources/sound/trials/audio_stim_comp69.mp3,60fd28d6778168a8cd975fc6,22,Female,Right handed,2021-07-26_20h49.03.708,MA Experiment 2,2021.1.2,Win32,57.7700751,1,13,47,0,1,,,,,
0.908565,response_1,longFoil,FEVER,GALLERY,,,,,,PARTY,SANCTUARY,short,resources/sound/trials/audio_stim_human50.mp3,60fd28d6778168a8cd975fc6,22,Female,Right handed,2021-07-26_20h49.03.708,MA Experiment 2,2021.1.2,Win32,57.7700751,1,14,48,14,1,,,,,
1.19154,response_1,,DOORWAY,CINNAMON,,,,,,JUGGLER,DANDELION,short,resources/sound/catchTrials/audio_control_human_project09.mp3,60fd28d6778168a8cd975fc6,22,Female,Right handed,2021-07-26_20h49.03.708,MA Experiment 2,2021.1.2,Win32,57.7700751,,,,,,0,30,30,15,1
0.72513,response_2,shortValid,FAIRY,CITIZEN,,,,,,ROBBER,RATTLESNAKE,short,resources/sound/trials/audio_stim_human64.mp3,60fd28d6778168a8cd975fc6,22,Female,Right handed,2021-07-26_20h49.03.708,MA Experiment 2,2021.1.2,Win32,57.7700751,1,15,49,15,1,,,,,
0.84874,response_1,longValid,VESSEL,ADMIRAL,,,,,,HARDWARE,OVERCOAT,long,resources/sound/trials/audio_stim_human35.mp3,60fd28d6778168a8cd975fc6,22,Female,Right handed,2021-07-26_20h49.03.708,MA Experiment 2,2021.1.2,Win32,57.7700751,1,16,50,25,1,,,,,
0.821105,response_1,shortFoil,ACRE,ENAMEL,,,,,,WORKER,VISITOR,short,resources/sound/trials/audio_stim_comp17.mp3,60fd28d6778168a8cd975fc6,22,Female,Right handed,2021-07-26_20h49.03.708,MA Experiment 2,2021.1.2,Win32,57.7700751,1,17,51,6,1,,,,,
1.173775,response_2,longFoil,FERTILE,ICICLE,,,,,,RUBBER,PROPERTY,short,resources/sound/trials/audio_stim_human0.mp3,60fd28d6778168a8cd975fc6,22,Female,Right handed,2021-07-26_20h49.03.708,MA Experiment 2,2021.1.2,Win32,57.7700751,1,18,52,12,1,,,,,
0.891675,response_2,,NOVEL,ENVELOPE,,,,,,JOURNAL,ROBBERY,short,resources/sound/catchTrials/audio_control_human_project02.mp3,60fd28d6778168a8cd975fc6,22,Female,Right handed,2021-07-26_20h49.03.708,MA Experiment 2,2021.1.2,Win32,57.7700751,,,,,,0,15,15,13,1
0.8462,response_2,shortValid,VALLEY,MESSENGER,,,,,,PAINTER,VEHICLE,short,resources/sound/trials/audio_stim_human47.mp3,60fd28d6778168a8cd975fc6,22,Female,Right handed,2021-07-26_20h49.03.708,MA Experiment 2,2021.1.2,Win32,57.7700751,1,19,53,11,1,,,,,
1.530735,response_4,longFoil,BUTTER,CABINET,,,,,,RECEIPT,LIMOUSINE,long,resources/sound/trials/audio_stim_comp40.mp3,60fd28d6778168a8cd975fc6,22,Female,Right handed,2021-07-26_20h49.03.708,MA Experiment 2,2021.1.2,Win32,57.7700751,1,20,54,19,1,,,,,
1.28331,response_2,shortFoil,SADDLE,DIAMOND,,,,,,WHISTLE,TREASURER,short,resources/sound/trials/audio_stim_comp12.mp3,60fd28d6778168a8cd975fc6,22,Female,Right handed,2021-07-26_20h49.03.708,MA Experiment 2,2021.1.2,Win32,57.7700751,1,21,55,3,1,,,,,
1.03101,response_2,shortFoil,NEIGHBOUR,MOLECULE,,,,,,WHISTLE,TREASURER,long,resources/sound/trials/audio_stim_comp12.mp3,60fd28d6778168a8cd975fc6,22,Female,Right handed,2021-07-26_20h49.03.708,MA Experiment 2,2021.1.2,Win32,57.7700751,1,22,56,20,1,,,,,
1.257955,response_1,,EVENING,GORILLA,,,,,,VIOLET,LUBRICANT,short,resources/sound/catchTrials/audio_control_comp_project07.mp3,60fd28d6778168a8cd975fc6,22,Female,Right handed,2021-07-26_20h49.03.708,MA Experiment 2,2021.1.2,Win32,57.7700751,,,,,,0,26,26,3,1
1.60081,response_1,longFoil,RABBI,CORRIDOR,,,,,,MARBLE,CUSTOMER,long,resources/sound/trials/audio_stim_comp65.mp3,60fd28d6778168a8cd975fc6,22,Female,Right handed,2021-07-26_20h49.03.708,MA Experiment 2,2021.1.2,Win32,57.7700751,1,23,57,21,1,,,,,
1.74269,response_1,shortFoil,NAPKIN,ATTENDANT,,,,,,PAINTER,VEHICLE,long,resources/sound/trials/audio_stim_human47.mp3,60fd28d6778168a8cd975fc6,22,Female,Right handed,2021-07-26_20h49.03.708,MA Experiment 2,2021.1.2,Win32,57.7700751,1,24,58,28,1,,,,,
0.980395,response_1,longFoil,GIRDLE,SETTLEMENT,,,,,,MINER,EMERALD,long,resources/sound/trials/audio_stim_human6.mp3,60fd28d6778168a8cd975fc6,22,Female,Right handed,2021-07-26_20h49.03.708,MA Experiment 2,2021.1.2,Win32,57.7700751,1,25,59,30,1,,,,,
1.00481,response_1,longFoil,DECOY,TEMPERATURE,,,,,,DRIZZLE,CARDINAL,long,resources/sound/trials/audio_stim_comp69.mp3,60fd28d6778168a8cd975fc6,22,Female,Right handed,2021-07-26_20h49.03.708,MA Experiment 2,2021.1.2,Win32,57.7700751,1,26,60,17,1,,,,,
0.86851,response_2,,WRITING,NEIGHBOURHOOD,,,,,,ICY,JITTERBUG,short,resources/sound/catchTrials/audio_control_comp_project08.mp3,60fd28d6778168a8cd975fc6,22,Female,Right handed,2021-07-26_20h49.03.708,MA Experiment 2,2021.1.2,Win32,57.7700751,,,,,,0,17,17,7,1
1.358705,response_2,longValid,GRADUATE,MERCURY,,,,,,BRAINSTORM,GREEN NEEDLE,long,resources/sound/trials/audio_stim_original.mp3,60fd28d6778168a8cd975fc6,22,Female,Right handed,2021-07-26_20h49.03.708,MA Experiment 2,2021.1.2,Win32,57.7700751,1,27,61,33,1,,,,,
1.20596,response_1,longValid,TEMPLE,PROPELLER,,,,,,SACRED,GALAXY,long,resources/sound/trials/audio_stim_comp1.mp3,60fd28d6778168a8cd975fc6,22,Female,Right handed,2021-07-26_20h49.03.708,MA Experiment 2,2021.1.2,Win32,57.7700751,1,28,62,24,1,,,,,
0.77861,response_1,longFoil,TWEEZER,VINEGAR,,,,,,MINER,EMERALD,short,resources/sound/trials/audio_stim_human6.mp3,60fd28d6778168a8cd975fc6,22,Female,Right handed,2021-07-26_20h49.03.708,MA Experiment 2,2021.1.2,Win32,57.7700751,1,29,63,13,1,,,,,
0.873415,response_1,longFoil,EARTHWORM,CANDLELIGHT,,,,,,MARBLE,CUSTOMER,short,resources/sound/trials/audio_stim_comp65.mp3,60fd28d6778168a8cd975fc6,22,Female,Right handed,2021-07-26_20h49.03.708,MA Experiment 2,2021.1.2,Win32,57.7700751,1,30,64,4,1,,,,,
0.8489,response_2,,FOREARM,ATHLETICS,,,,,,CORNER,ENGINEER,long,resources/sound/catchTrials/audio_control_human_project14.mp3,60fd28d6778168a8cd975fc6,22,Female,Right handed,2021-07-26_20h49.03.708,MA Experiment 2,2021.1.2,Win32,57.7700751,,,,,,0,22,22,26,1
0.966115,response_2,longValid,PODIUM,SPECIALIST,,,,,,RUBBER,PROPERTY,long,resources/sound/trials/audio_stim_human0.mp3,60fd28d6778168a8cd975fc6,22,Female,Right handed,2021-07-26_20h49.03.708,MA Experiment 2,2021.1.2,Win32,57.7700751,1,31,65,29,1,,,,,
1.141845,response_2,longValid,SCOOTER,GYMNASTICS,,,,,,HARDWARE,OVERCOAT,short,resources/sound/trials/audio_stim_human35.mp3,60fd28d6778168a8cd975fc6,22,Female,Right handed,2021-07-26_20h49.03.708,MA Experiment 2,2021.1.2,Win32,57.7700751,1,32,66,8,1,,,,,
0.914585,response_1,shortFoil,CEREAL,CAPITAL,,,,,,DAYLIGHT,MATERIAL,short,resources/sound/trials/audio_stim_human42.mp3,60fd28d6778168a8cd975fc6,22,Female,Right handed,2021-07-26_20h49.03.708,MA Experiment 2,2021.1.2,Win32,57.7700751,1,33,67,9,1,,,,,
1.098355,response_1,longFoil,MURAL,BEVERAGE,,,,,,ATHLETE,IVORY,short,resources/sound/trials/audio_stim_comp57.mp3,60fd28d6778168a8cd975fc6,22,Female,Right handed,2021-07-26_20h49.03.708,MA Experiment 2,2021.1.2,Win32,57.7700751,2,0,68,5,1,,,,,
1.200315,response_1,longValid,WRITING,EMULSION,,,,,,DRIZZLE,CARDINAL,short,resources/sound/trials/audio_stim_comp69.mp3,60fd28d6778168a8cd975fc6,22,Female,Right handed,2021-07-26_20h49.03.708,MA Experiment 2,2021.1.2,Win32,57.7700751,2,1,69,0,1,,,,,
0.48404,response_2,shortFoil,SODA,MOLECULE,,,,,,RUBBER,PROPERTY,short,resources/sound/trials/audio_stim_human0.mp3,60fd28d6778168a8cd975fc6,22,Female,Right handed,2021-07-26_20h49.03.708,MA Experiment 2,2021.1.2,Win32,57.7700751,2,2,70,12,1,,,,,
0.73732,response_2,,VAPOUR,CANDLELIGHT,,,,,,CORNER,ENGINEER,short,resources/sound/catchTrials/audio_control_comp_project14.mp3,60fd28d6778168a8cd975fc6,22,Female,Right handed,2021-07-26_20h49.03.708,MA Experiment 2,2021.1.2,Win32,57.7700751,,,,,,0,16,16,1,1
1.016795,response_2,shortFoil,CURFEW,ADMIRAL,,,,,,ROBBER,RATTLESNAKE,long,resources/sound/trials/audio_stim_human64.mp3,60fd28d6778168a8cd975fc6,22,Female,Right handed,2021-07-26_20h49.03.708,MA Experiment 2,2021.1.2,Win32,57.7700751,2,3,71,32,1,,,,,
1.59914,response_1,shortValid,FOREARM,CLARINET,,,,,,HARDWARE,OVERCOAT,long,resources/sound/trials/audio_stim_human35.mp3,60fd28d6778168a8cd975fc6,22,Female,Right handed,2021-07-26_20h49.03.708,MA Experiment 2,2021.1.2,Win32,57.7700751,2,4,72,25,1,,,,,
1.32249,response_1,longFoil,SOFA,NEWSPAPER,,,,,,CONCRETE,ENEMY,long,resources/sound/trials/audio_stim_human67.mp3,60fd28d6778168a8cd975fc6,22,Female,Right handed,2021-07-26_20h49.03.708,MA Experiment 2,2021.1.2,Win32,57.7700751,2,5,73,27,1,,,,,
1.66934,response_1,shortValid,TWEEZER,MEDICINE,,,,,,BRAINSTORM,GREEN NEEDLE,short,resources/sound/trials/audio_stim_original.mp3,60fd28d6778168a8cd975fc6,22,Female,Right handed,2021-07-26_20h49.03.708,MA Experiment 2,2021.1.2,Win32,57.7700751,2,6,74,16,1,,,,,
0.838025,response_2,,POLO,ACROBAT,,,,,,IRIS,VIOLIN,long,resources/sound/catchTrials/audio_control_human_project12.mp3,60fd28d6778168a8cd975fc6,22,Female,Right handed,2021-07-26_20h49.03.708,MA Experiment 2,2021.1.2,Win32,57.7700751,,,,,,0,9,9,24,1
0.924965,response_2,longValid,SADDLE,GORILLA,,,,,,MINER,EMERALD,short,resources/sound/trials/audio_stim_human6.mp3,60fd28d6778168a8cd975fc6,22,Female,Right handed,2021-07-26_20h49.03.708,MA Experiment 2,2021.1.2,Win32,57.7700751,2,7,75,13,1,,,,,
1.27433,response_1,longValid,MORNING,MINERAL,,,,,,WHISTLE,TREASURER,long,resources/sound/trials/audio_stim_comp12.mp3,60fd28d6778168a8cd975fc6,22,Female,Right handed,2021-07-26_20h49.03.708,MA Experiment 2,2021.1.2,Win32,57.7700751,2,8,76,20,1,,,,,
1.414645,response_1,shortFoil,NAPKIN,AMMONIA,,,,,,RECEIPT,LIMOUSINE,long,resources/sound/trials/audio_stim_comp40.mp3,60fd28d6778168a8cd975fc6,22,Female,Right handed,2021-07-26_20h49.03.708,MA Experiment 2,2021.1.2,Win32,57.7700751,2,9,77,19,1,,,,,
0.743605,response_2,longFoil,PIANO,MONUMENT,,,,,,MINER,EMERALD,short,resources/sound/trials/audio_stim_comp6.mp3,60fd28d6778168a8cd975fc6,22,Female,Right handed,2021-07-26_20h49.03.708,MA Experiment 2,2021.1.2,Win32,57.7700751,2,10,78,1,1,,,,,
1.038925,response_2,,DOORWAY,POLIO,,,,,,BORDER,ALGEBRA,short,resources/sound/catchTrials/audio_control_comp_project00.mp3,60fd28d6778168a8cd975fc6,22,Female,Right handed,2021-07-26_20h49.03.708,MA Experiment 2,2021.1.2,Win32,57.7700751,,,,,,0,6,6,0,1
0.806015,response_1,longFoil,VESSEL,AMBULANCE,,,,,,CONCRETE,ENEMY,short,resources/sound/trials/audio_stim_human67.mp3,60fd28d6778168a8cd975fc6,22,Female,Right handed,2021-07-26_20h49.03.708,MA Experiment 2,2021.1.2,Win32,57.7700751,2,11,79,10,1,,,,,
0.80747,response_1,shortFoil,PATIENT,APPLIANCE,,,,,,SACRED,GALAXY,long,resources/sound/trials/audio_stim_comp1.mp3,60fd28d6778168a8cd975fc6,22,Female,Right handed,2021-07-26_20h49.03.708,MA Experiment 2,2021.1.2,Win32,57.7700751,2,12,80,24,1,,,,,
0.71371,response_2,longValid,SHOULDER,FAMILY,,,,,,ROBBER,RATTLESNAKE,short,resources/sound/trials/audio_stim_human64.mp3,60fd28d6778168a8cd975fc6,22,Female,Right handed,2021-07-26_20h49.03.708,MA Experiment 2,2021.1.2,Win32,57.7700751,2,13,81,15,1,,,,,
0.55388,response_1,shortFoil,BERRY,SAXOPHONE,,,,,,ATHLETE,IVORY,long,resources/sound/trials/audio_stim_comp57.mp3,60fd28d6778168a8cd975fc6,22,Female,Right handed,2021-07-26_20h49.03.708,MA Experiment 2,2021.1.2,Win32,57.7700751,2,14,82,22,1,,,,,
0.784875,response_2,,FAIRY,COMMITTEE,,,,,,SPINACH,APRICOT,short,resources/sound/catchTrials/audio_control_comp_project18.mp3,60fd28d6778168a8cd975fc6,22,Female,Right handed,2021-07-26_20h49.03.708,MA Experiment 2,2021.1.2,Win32,57.7700751,,,,,,0,8,8,5,1
0.92586,response_1,shortValid,PERSON,AVENUE,,,,,,DAYLIGHT,MATERIAL,long,resources/sound/trials/audio_stim_human42.mp3,60fd28d6778168a8cd975fc6,22,Female,Right handed,2021-07-26_20h49.03.708,MA Experiment 2,2021.1.2,Win32,57.7700751,2,15,83,26,1,,,,,
0.826085,response_1,longValid,WINDOW,MECHANIC,,,,,,PARTY,SANCTUARY,short,resources/sound/trials/audio_stim_human50.mp3,60fd28d6778168a8cd975fc6,22,Female,Right handed,2021-07-26_20h49.03.708,MA Experiment 2,2021.1.2,Win32,57.7700751,2,16,84,14,1,,,,,
1.25084,response_1,longValid,ANCHOR,JANITOR,,,,,,PAINTER,VEHICLE,short,resources/sound/trials/audio_stim_human47.mp3,60fd28d6778168a8cd975fc6,22,Female,Right handed,2021-07-26_20h49.03.708,MA Experiment 2,2021.1.2,Win32,57.7700751,2,17,85,11,1,,,,,
1.25391,response_2,shortValid,DECOY,HURRICANE,,,,,,RECEIPT,LIMOUSINE,short,resources/sound/trials/audio_stim_comp40.mp3,60fd28d6778168a8cd975fc6,22,Female,Right handed,2021-07-26_20h49.03.708,MA Experiment 2,2021.1.2,Win32,57.7700751,2,18,86,2,1,,,,,
0.980305,response_1,,FERTILE,CITIZEN,,,,,,POISON,REVOLVER,short,resources/sound/catchTrials/audio_control_human_project01.mp3,60fd28d6778168a8cd975fc6,22,Female,Right handed,2021-07-26_20h49.03.708,MA Experiment 2,2021.1.2,Win32,57.7700751,,,,,,0,2,2,9,1
0.784975,response_2,shortValid,MOONLIGHT,FURNITURE,,,,,,MINER,EMERALD,long,resources/sound/trials/audio_stim_human6.mp3,60fd28d6778168a8cd975fc6,22,Female,Right handed,2021-07-26_20h49.03.708,MA Experiment 2,2021.1.2,Win32,57.7700751,2,19,87,30,1,,,,,
0.557715,response_1,shortFoil,PODIUM,CONVENTION,,,,,,WORKER,VISITOR,long,resources/sound/trials/audio_stim_comp17.mp3,60fd28d6778168a8cd975fc6,22,Female,Right handed,2021-07-26_20h49.03.708,MA Experiment 2,2021.1.2,Win32,57.7700751,2,20,88,23,1,,,,,
0.816465,response_1,longValid,LOBSTER,ATHLETICS,,,,,,MARBLE,CUSTOMER,long,resources/sound/trials/audio_stim_comp65.mp3,60fd28d6778168a8cd975fc6,22,Female,Right handed,2021-07-26_20h49.03.708,MA Experiment 2,2021.1.2,Win32,57.7700751,2,21,89,21,1,,,,,
1.158105,response_1,shortFoil,NOVEL,VINEGAR,,,,,,MARBLE,CUSTOMER,short,resources/sound/trials/audio_stim_comp65.mp3,60fd28d6778168a8cd975fc6,22,Female,Right handed,2021-07-26_20h49.03.708,MA Experiment 2,2021.1.2,Win32,57.7700751,2,22,90,4,1,,,,,
0.74884,response_2,,PRINCESS,CIGARETTE,,,,,,NAVY,RECTANGLE,long,resources/sound/catchTrials/audio_control_human_project06.mp3,60fd28d6778168a8cd975fc6,22,Female,Right handed,2021-07-26_20h49.03.708,MA Experiment 2,2021.1.2,Win32,57.7700751,,,,,,0,7,7,30,1
0.970475,response_2,shortFoil,CEREAL,TEMPERATURE,,,,,,RUBBER,PROPERTY,long,resources/sound/trials/audio_stim_human0.mp3,60fd28d6778168a8cd975fc6,22,Female,Right handed,2021-07-26_20h49.03.708,MA Experiment 2,2021.1.2,Win32,57.7700751,2,23,91,29,1,,,,,
1.085935,response_1,longValid,SEGMENT,DESTROYER,,,,,,WHISTLE,TREASURER,short,resources/sound/trials/audio_stim_comp12.mp3,60fd28d6778168a8cd975fc6,22,Female,Right handed,2021-07-26_20h49.03.708,MA Experiment 2,2021.1.2,Win32,57.7700751,2,24,92,3,1,,,,,
0.90394,response_1,shortValid,KERNEL,SPECIALIST,,,,,,HARDWARE,OVERCOAT,short,resources/sound/trials/audio_stim_human35.mp3,60fd28d6778168a8cd975fc6,22,Female,Right handed,2021-07-26_20h49.03.708,MA Experiment 2,2021.1.2,Win32,57.7700751,2,25,93,8,1,,,,,
0.76907,response_1,shortValid,CHIPMUNK,INSTRUCTOR,,,,,,BRAINSTORM,GREEN NEEDLE,long,resources/sound/trials/audio_stim_original.mp3,60fd28d6778168a8cd975fc6,22,Female,Right handed,2021-07-26_20h49.03.708,MA Experiment 2,2021.1.2,Win32,57.7700751,2,26,94,33,1,,,,,
1.44105,response_2,,RUSTY,GYMNASTICS,,,,,,CORNER,ENGINEER,long,resources/sound/catchTrials/audio_control_comp_project14.mp3,60fd28d6778168a8cd975fc6,22,Female,Right handed,2021-07-26_20h49.03.708,MA Experiment 2,2021.1.2,Win32,57.7700751,,,,,,0,12,12,17,1
1.510525,response_1,shortValid,DANCER,PROJECTOR,,,,,,DAYLIGHT,MATERIAL,short,resources/sound/trials/audio_stim_human42.mp3,60fd28d6778168a8cd975fc6,22,Female,Right handed,2021-07-26_20h49.03.708,MA Experiment 2,2021.1.2,Win32,57.7700751,2,27,95,9,1,,,,,
1.42511,response_1,longFoil,GRADUATE,SETTLEMENT,,,,,,WORKER,VISITOR,short,resources/sound/trials/audio_stim_comp17.mp3,60fd28d6778168a8cd975fc6,22,Female,Right handed,2021-07-26_20h49.03.708,MA Experiment 2,2021.1.2,Win32,57.7700751,2,28,96,6,1,,,,,
0.96963,response_2,shortValid,MUSCLE,BEVERAGE,,,,,,PAINTER,VEHICLE,long,resources/sound/trials/audio_stim_human47.mp3,60fd28d6778168a8cd975fc6,22,Female,Right handed,2021-07-26_20h49.03.708,MA Experiment 2,2021.1.2,Win32,57.7700751,2,29,97,28,1,,,,,
1.050645,response_1,longValid,STATION,CATHEDRAL,,,,,,DRIZZLE,CARDINAL,long,resources/sound/trials/audio_stim_comp69.mp3,60fd28d6778168a8cd975fc6,22,Female,Right handed,2021-07-26_20h49.03.708,MA Experiment 2,2021.1.2,Win32,57.7700751,2,30,98,17,1,,,,,
1.388305,response_2,,HAMSTER,INSTRUMENT,,,,,,BORDER,ALGEBRA,long,resources/sound/catchTrials/audio_control_comp_project00.mp3,60fd28d6778168a8cd975fc6,22,Female,Right handed,2021-07-26_20h49.03.708,MA Experiment 2,2021.1.2,Win32,57.7700751,,,,,,0,18,18,16,1
2.66269,response_1,longValid,DIAL,DISSECTION,,,,,,MINER,EMERALD,long,resources/sound/trials/audio_stim_comp6.mp3,60fd28d6778168a8cd975fc6,22,Female,Right handed,2021-07-26_20h49.03.708,MA Experiment 2,2021.1.2,Win32,57.7700751,2,31,99,18,1,,,,,
0.82259,response_2,longValid,MURAL,ORNAMENT,,,,,,PARTY,SANCTUARY,long,resources/sound/trials/audio_stim_human50.mp3,60fd28d6778168a8cd975fc6,22,Female,Right handed,2021-07-26_20h49.03.708,MA Experiment 2,2021.1.2,Win32,57.7700751,2,32,100,31,1,,,,,
1.05087,response_1,longFoil,WALRUS,LECTURER,,,,,,SACRED,GALAXY,short,resources/sound/trials/audio_stim_comp1.mp3,60fd28d6778168a8cd975fc6,22,Female,Right handed,2021-07-26_20h49.03.708,MA Experiment 2,2021.1.2,Win32,57.7700751,2,33,101,7,1,,,,,
1.29275,response_1,shortValid,INVOICE,PHOTOGRAPH,,,,,,WHISTLE,TREASURER,long,resources/sound/trials/audio_stim_comp12.mp3,60fd28d6778168a8cd975fc6,22,Female,Right handed,2021-07-26_20h49.03.708,MA Experiment 2,2021.1.2,Win32,57.7700751,3,0,102,20,1,,,,,
0.816095,response_2,shortFoil,HURDLE,PROPELLER,,,,,,ROBBER,RATTLESNAKE,short,resources/sound/trials/audio_stim_human64.mp3,60fd28d6778168a8cd975fc6,22,Female,Right handed,2021-07-26_20h49.03.708,MA Experiment 2,2021.1.2,Win32,57.7700751,3,1,103,15,1,,,,,
0.84269,response_2,longFoil,CRYSTAL,INFECTION,,,,,,ROBBER,RATTLESNAKE,long,resources/sound/trials/audio_stim_human64.mp3,60fd28d6778168a8cd975fc6,22,Female,Right handed,2021-07-26_20h49.03.708,MA Experiment 2,2021.1.2,Win32,57.7700751,3,2,104,32,1,,,,,
1.040415,response_1,,TEMPLE,ENAMEL,,,,,,VIOLET,LUBRICANT,short,resources/sound/catchTrials/audio_control_human_project07.mp3,60fd28d6778168a8cd975fc6,22,Female,Right handed,2021-07-26_20h49.03.708,MA Experiment 2,2021.1.2,Win32,57.7700751,,,,,,0,29,29,12,1
0.80035,response_1,shortFoil,BISHOP,POLICEMAN,,,,,,DAYLIGHT,MATERIAL,long,resources/sound/trials/audio_stim_human42.mp3,60fd28d6778168a8cd975fc6,22,Female,Right handed,2021-07-26_20h49.03.708,MA Experiment 2,2021.1.2,Win32,57.7700751,3,3,105,26,1,,,,,
1.20316,response_2,shortValid,STOCKING,INDUSTRY,,,,,,MINER,EMERALD,long,resources/sound/trials/audio_stim_comp6.mp3,60fd28d6778168a8cd975fc6,22,Female,Right handed,2021-07-26_20h49.03.708,MA Experiment 2,2021.1.2,Win32,57.7700751,3,4,106,18,1,,,,,
1.113775,response_1,shortValid,EARTHWORM,HOSPITAL,,,,,,ATHLETE,IVORY,long,resources/sound/trials/audio_stim_comp57.mp3,60fd28d6778168a8cd975fc6,22,Female,Right handed,2021-07-26_20h49.03.708,MA Experiment 2,2021.1.2,Win32,57.7700751,3,5,107,22,1,,,,,
1.320005,response_2,longValid,PIPING,ASBESTOS,,,,,,RECEIPT,LIMOUSINE,short,resources/sound/trials/audio_stim_comp40.mp3,60fd28d6778168a8cd975fc6,22,Female,Right handed,2021-07-26_20h49.03.708,MA Experiment 2,2021.1.2,Win32,57.7700751,3,6,108,2,1,,,,,
1.33178,response_1,,JURY,CARNATION,,,,,,POISON,REVOLVER,long,resources/sound/catchTrials/audio_control_human_project01.mp3,60fd28d6778168a8cd975fc6,22,Female,Right handed,2021-07-26_20h49.03.708,MA Experiment 2,2021.1.2,Win32,57.7700751,,,,,,0,24,24,25,1
1.049475,response_1,shortValid,FEVER,TANGERINE,,,,,,ATHLETE,IVORY,short,resources/sound/trials/audio_stim_comp57.mp3,60fd28d6778168a8cd975fc6,22,Female,Right handed,2021-07-26_20h49.03.708,MA Experiment 2,2021.1.2,Win32,57.7700751,3,7,109,5,1,,,,,
0.873695,response_2,shortValid,TUMBLE,MOSQUITO,,,,,,RUBBER,PROPERTY,short,resources/sound/trials/audio_stim_human0.mp3,60fd28d6778168a8cd975fc6,22,Female,Right handed,2021-07-26_20h49.03.708,MA Experiment 2,2021.1.2,Win32,57.7700751,3,8,110,12,1,,,,,
0.943285,response_1,shortFoil,KENNEL,PHYSICIAN,,,,,,PARTY,SANCTUARY,short,resources/sound/trials/audio_stim_human50.mp3,60fd28d6778168a8cd975fc6,22,Female,Right handed,2021-07-26_20h49.03.708,MA Experiment 2,2021.1.2,Win32,57.7700751,3,9,111,14,1,,,,,
1.38847,response_1,longFoil,EVENING,MICROSCOPE,,,,,,BRAINSTORM,GREEN NEEDLE,short,resources/sound/trials/audio_stim_original.mp3,60fd28d6778168a8cd975fc6,22,Female,Right handed,2021-07-26_20h49.03.708,MA Experiment 2,2021.1.2,Win32,57.7700751,3,10,112,16,1,,,,,
1.23688,response_2,,TORTURE,MINISTER,,,,,,JOURNAL,ROBBERY,long,resources/sound/catchTrials/audio_control_human_project02.mp3,60fd28d6778168a8cd975fc6,22,Female,Right handed,2021-07-26_20h49.03.708,MA Experiment 2,2021.1.2,Win32,57.7700751,,,,,,0,3,3,29,1
0.713345,response_1,shortValid,CAPTAIN,FISHERMAN,,,,,,SACRED,GALAXY,long,resources/sound/trials/audio_stim_comp1.mp3,60fd28d6778168a8cd975fc6,22,Female,Right handed,2021-07-26_20h49.03.708,MA Experiment 2,2021.1.2,Win32,57.7700751,3,11,113,24,1,,,,,
0.777935,response_2,shortValid,SHEEPSKIN,LEMONADE,,,,,,MINER,EMERALD,short,resources/sound/trials/audio_stim_human6.mp3,60fd28d6778168a8cd975fc6,22,Female,Right handed,2021-07-26_20h49.03.708,MA Experiment 2,2021.1.2,Win32,57.7700751,3,12,114,13,1,,,,,
0.901195,response_2,shortFoil,UNCLE,HONEYMOON,,,,,,MINER,EMERALD,long,resources/sound/trials/audio_stim_human6.mp3,60fd28d6778168a8cd975fc6,22,Female,Right handed,2021-07-26_20h49.03.708,MA Experiment 2,2021.1.2,Win32,57.7700751,3,13,115,30,1,,,,,
0.91702,response_2,longFoil,LIQUID,OPENING,,,,,,PAINTER,VEHICLE,short,resources/sound/trials/audio_stim_human47.mp3,60fd28d6778168a8cd975fc6,22,Female,Right handed,2021-07-26_20h49.03.708,MA Experiment 2,2021.1.2,Win32,57.7700751,3,14,116,11,1,,,,,
1.1747,response_2,,INCOME,ATTENDANT,,,,,,HOBBY,COLONY,short,resources/sound/catchTrials/audio_control_human_project04.mp3,60fd28d6778168a8cd975fc6,22,Female,Right handed,2021-07-26_20h49.03.708,MA Experiment 2,2021.1.2,Win32,57.7700751,,,,,,0,31,31,11,1
1.013195,response_1,longValid,BURNER,RETAILER,,,,,,WORKER,VISITOR,short,resources/sound/trials/audio_stim_comp17.mp3,60fd28d6778168a8cd975fc6,22,Female,Right handed,2021-07-26_20h49.03.708,MA Experiment 2,2021.1.2,Win32,57.7700751,3,15,117,6,1,,,,,
0.730055,response_1,longFoil,NURSERY,CABINET,,,,,,PARTY,SANCTUARY,long,resources/sound/trials/audio_stim_human50.mp3,60fd28d6778168a8cd975fc6,22,Female,Right handed,2021-07-26_20h49.03.708,MA Experiment 2,2021.1.2,Win32,57.7700751,3,16,118,31,1,,,,,
1.138655,response_2,shortValid,SULPHUR,HANDKERCHIEF,,,,,,SACRED,GALAXY,short,resources/sound/trials/audio_stim_comp1.mp3,60fd28d6778168a8cd975fc6,22,Female,Right handed,2021-07-26_20h49.03.708,MA Experiment 2,2021.1.2,Win32,57.7700751,3,17,119,7,1,,,,,
0.805385,response_1,shortValid,CABIN,INJURY,,,,,,WHISTLE,TREASURER,short,resources/sound/trials/audio_stim_comp12.mp3,60fd28d6778168a8cd975fc6,22,Female,Right handed,2021-07-26_20h49.03.708,MA Experiment 2,2021.1.2,Win32,57.7700751,3,18,120,3,1,,,,,
1.24834,response_2,,MISTRESS,INTERVIEW,,,,,,NAVY,RECTANGLE,short,resources/sound/catchTrials/audio_control_comp_project06.mp3,60fd28d6778168a8cd975fc6,22,Female,Right handed,2021-07-26_20h49.03.708,MA Experiment 2,2021.1.2,Win32,57.7700751,,,,,,0,27,27,6,1
0.906665,response_1,longValid,TRAITOR,OXYGEN,,,,,,DAYLIGHT,MATERIAL,short,resources/sound/trials/audio_stim_human42.mp3,60fd28d6778168a8cd975fc6,22,Female,Right handed,2021-07-26_20h49.03.708,MA Experiment 2,2021.1.2,Win32,57.7700751,3,19,121,9,1,,,,,
0.955075,response_2,longValid,FATHER,MERCURY,,,,,,MINER,EMERALD,short,resources/sound/trials/audio_stim_comp6.mp3,60fd28d6778168a8cd975fc6,22,Female,Right handed,2021-07-26_20h49.03.708,MA Experiment 2,2021.1.2,Win32,57.7700751,3,20,122,1,1,,,,,
1.08973,response_2,shortValid,HARBOUR,POTATO,,,,,,RECEIPT,LIMOUSINE,long,resources/sound/trials/audio_stim_comp40.mp3,60fd28d6778168a8cd975fc6,22,Female,Right handed,2021-07-26_20h49.03.708,MA Experiment 2,2021.1.2,Win32,57.7700751,3,21,123,19,1,,,,,
0.98437,response_2,longValid,VALLEY,CINNAMON,,,,,,PAINTER,VEHICLE,long,resources/sound/trials/audio_stim_human47.mp3,60fd28d6778168a8cd975fc6,22,Female,Right handed,2021-07-26_20h49.03.708,MA Experiment 2,2021.1.2,Win32,57.7700751,3,22,124,28,1,,,,,
1.20748,response_2,,ACRE,GINGERBREAD,,,,,,SPINACH,APRICOT,long,resources/sound/catchTrials/audio_control_comp_project18.mp3,60fd28d6778168a8cd975fc6,22,Female,Right handed,2021-07-26_20h49.03.708,MA Experiment 2,2021.1.2,Win32,57.7700751,,,,,,0,4,4,21,1
1.41502,response_1,longFoil,DIVING,ALPHABET,,,,,,WORKER,VISITOR,long,resources/sound/trials/audio_stim_comp17.mp3,60fd28d6778168a8cd975fc6,22,Female,Right handed,2021-07-26_20h49.03.708,MA Experiment 2,2021.1.2,Win32,57.7700751,3,23,125,23,1,,,,,
1.06722,response_1,shortFoil,SINGER,CHOCOLATE,,,,,,MARBLE,CUSTOMER,long,resources/sound/trials/audio_stim_comp65.mp3,60fd28d6778168a8cd975fc6,22,Female,Right handed,2021-07-26_20h49.03.708,MA Experiment 2,2021.1.2,Win32,57.7700751,3,24,126,21,1,,,,,
1.113995,response_2,longFoil,GIRDLE,FIREWOOD,,,,,,RUBBER,PROPERTY,long,resources/sound/trials/audio_stim_human0.mp3,60fd28d6778168a8cd975fc6,22,Female,Right handed,2021-07-26_20h49.03.708,MA Experiment 2,2021.1.2,Win32,57.7700751,3,25,127,29,1,,,,,
0.85258,response_1,shortFoil,MEASLES,CROCODILE,,,,,,HARDWARE,OVERCOAT,short,resources/sound/trials/audio_stim_human35.mp3,60fd28d6778168a8cd975fc6,22,Female,Right handed,2021-07-26_20h49.03.708,MA Experiment 2,2021.1.2,Win32,57.7700751,3,26,128,8,1,,,,,
1.05425,response_2,,CANTEEN,GALLERY,,,,,,HOBBY,COLONY,long,resources/sound/catchTrials/audio_control_human_project04.mp3,60fd28d6778168a8cd975fc6,22,Female,Right handed,2021-07-26_20h49.03.708,MA Experiment 2,2021.1.2,Win32,57.7700751,,,,,,0,13,13,27,1
0.732675,response_1,longValid,VILLAGE,CAMERA,,,,,,MARBLE,CUSTOMER,short,resources/sound/trials/audio_stim_comp65.mp3,60fd28d6778168a8cd975fc6,22,Female,Right handed,2021-07-26_20h49.03.708,MA Experiment 2,2021.1.2,Win32,57.7700751,3,27,129,4,1,,,,,
1.28592,response_1,shortValid,NEIGHBOUR,ANTIQUE,,,,,,CONCRETE,ENEMY,long,resources/sound/trials/audio_stim_human67.mp3,60fd28d6778168a8cd975fc6,22,Female,Right handed,2021-07-26_20h49.03.708,MA Experiment 2,2021.1.2,Win32,57.7700751,3,28,130,27,1,,,,,
1.04131,response_1,shortValid,OLIVE,FACTORY,,,,,,DRIZZLE,CARDINAL,short,resources/sound/trials/audio_stim_comp69.mp3,60fd28d6778168a8cd975fc6,22,Female,Right handed,2021-07-26_20h49.03.708,MA Experiment 2,2021.1.2,Win32,57.7700751,3,29,131,0,1,,,,,
1.665215,response_1,shortValid,BUTTER,CAPITAL,,,,,,DRIZZLE,CARDINAL,long,resources/sound/trials/audio_stim_comp69.mp3,60fd28d6778168a8cd975fc6,22,Female,Right handed,2021-07-26_20h49.03.708,MA Experiment 2,2021.1.2,Win32,57.7700751,3,30,132,17,1,,,,,
1.071795,response_2,,WAFER,NEIGHBOURHOOD,,,,,,IRIS,VIOLIN,long,resources/sound/catchTrials/audio_control_comp_project12.mp3,60fd28d6778168a8cd975fc6,22,Female,Right handed,2021-07-26_20h49.03.708,MA Experiment 2,2021.1.2,Win32,57.7700751,,,,,,0,23,23,20,1
1.0719,response_2,shortFoil,PICTURE,BUTTERFLY,,,,,,BRAINSTORM,GREEN NEEDLE,long,resources/sound/trials/audio_stim_original.mp3,60fd28d6778168a8cd975fc6,22,Female,Right handed,2021-07-26_20h49.03.708,MA Experiment 2,2021.1.2,Win32,57.7700751,3,31,133,33,1,,,,,
1.252415,response_1,shortValid,NECKLACE,REFEREE,,,,,,CONCRETE,ENEMY,short,resources/sound/trials/audio_stim_human67.mp3,60fd28d6778168a8cd975fc6,22,Female,Right handed,2021-07-26_20h49.03.708,MA Experiment 2,2021.1.2,Win32,57.7700751,3,32,134,10,1,,,,,
1.023185,response_2,longFoil,KETTLE,ENVELOPE,,,,,,HARDWARE,OVERCOAT,long,resources/sound/trials/audio_stim_human35.mp3,60fd28d6778168a8cd975fc6,22,Female,Right handed,2021-07-26_20h49.03.708,MA Experiment 2,2021.1.2,Win32,57.7700751,3,33,135,25,1,,,,,
