response.time,response,cueTarget,rand_foil_1,rand_foil_2,prac_trials.thisRepN,prac_trials.thisTrialN,prac_trials.thisN,prac_trials.thisIndex,prac_trials.ran,word_1,word_2,cue,file_path,participant,age,gender,handedness,date,expName,psychopyVersion,OS,frameRate,trials.thisRepN,trials.thisTrialN,trials.thisN,trials.thisIndex,trials.ran,catchTrials.thisRepN,catchTrials.thisTrialN,catchTrials.thisN,catchTrials.thisIndex,catchTrials.ran
,,longValid,TUMBLE,POTATO,0,0,0,1,1,CABLE,REPUBLIC,short,resources/sound/prac_trials/practice_cue_human1.mp3,60fd0ef6bf5253cae24e3c0d,33,Female,Right handed,2021-07-26_20h49.01.684,MA Experiment 2,2021.1.2,Win32,58.11250581,,,,,,,,,,
1.4518,response_2,shortValid,FERTILE,FIREWOOD,0,1,1,10,1,SAFFRON,JAVELIN,long,resources/sound/prac_trials/practice_cue10.mp3,60fd0ef6bf5253cae24e3c0d,33,Female,Right handed,2021-07-26_20h49.01.684,MA Experiment 2,2021.1.2,Win32,58.11250581,,,,,,,,,,
3.038299999,response_1,shortValid,SULPHUR,DISSECTION,0,2,2,11,1,KETCHUP,GONDOLA,long,resources/sound/prac_trials/practice_cue_human11.mp3,60fd0ef6bf5253cae24e3c0d,33,Female,Right handed,2021-07-26_20h49.01.684,MA Experiment 2,2021.1.2,Win32,58.11250581,,,,,,,,,,
1.25,response_2,shortFoil,SODA,HEROIN,0,3,3,6,1,VACANT,SALVATION,long,resources/sound/prac_trials/practice_cue6.mp3,60fd0ef6bf5253cae24e3c0d,33,Female,Right handed,2021-07-26_20h49.01.684,MA Experiment 2,2021.1.2,Win32,58.11250581,,,,,,,,,,
2.1619,response_2,shortFoil,BEETLE,REFEREE,0,4,4,2,1,RECENT,TOBACCO,short,resources/sound/prac_trials/practice_cue2.mp3,60fd0ef6bf5253cae24e3c0d,33,Female,Right handed,2021-07-26_20h49.01.684,MA Experiment 2,2021.1.2,Win32,58.11250581,,,,,,,,,,
1.6645,response_2,shortValid,BERRY,CIGARETTE,0,5,5,4,1,FIZZY,ELECTRIC,short,resources/sound/prac_trials/practice_cue4.mp3,60fd0ef6bf5253cae24e3c0d,33,Female,Right handed,2021-07-26_20h49.01.684,MA Experiment 2,2021.1.2,Win32,58.11250581,,,,,,,,,,
1.683400001,response_2,shortFoil,MURAL,INTERVIEW,0,6,6,3,1,EAGER,QUALIFY,short,resources/sound/prac_trials/practice_cue_human3.mp3,60fd0ef6bf5253cae24e3c0d,33,Female,Right handed,2021-07-26_20h49.01.684,MA Experiment 2,2021.1.2,Win32,58.11250581,,,,,,,,,,
1.4157,response_2,shortFoil,NOVEL,ACROBAT,0,7,7,8,1,DAGGER,EMPHASIS,long,resources/sound/prac_trials/practice_cue8.mp3,60fd0ef6bf5253cae24e3c0d,33,Female,Right handed,2021-07-26_20h49.01.684,MA Experiment 2,2021.1.2,Win32,58.11250581,,,,,,,,,,
1.604400001,response_2,shortValid,DUEL,ALCOHOL,0,8,8,7,1,BUCKLE,WALLABY,long,resources/sound/prac_trials/practice_cue_human7.mp3,60fd0ef6bf5253cae24e3c0d,33,Female,Right handed,2021-07-26_20h49.01.684,MA Experiment 2,2021.1.2,Win32,58.11250581,,,,,,,,,,
1.2755,response_2,longFoil,VALLEY,INSTRUMENT,0,9,9,9,1,GRUMPY,LABYRINTH,long,resources/sound/prac_trials/practice_cue_human9.mp3,60fd0ef6bf5253cae24e3c0d,33,Female,Right handed,2021-07-26_20h49.01.684,MA Experiment 2,2021.1.2,Win32,58.11250581,,,,,,,,,,
1.2232,response_1,shortValid,VAPOUR,CONVENTION,0,10,10,0,1,AARDVARK,FALLACY,short,resources/sound/prac_trials/practice_cue0.mp3,60fd0ef6bf5253cae24e3c0d,33,Female,Right handed,2021-07-26_20h49.01.684,MA Experiment 2,2021.1.2,Win32,58.11250581,,,,,,,,,,
1.3148,response_2,shortValid,TWEEZER,ORNAMENT,0,11,11,5,1,NONSENSE,OASIS,short,resources/sound/prac_trials/practice_cue_human5.mp3,60fd0ef6bf5253cae24e3c0d,33,Female,Right handed,2021-07-26_20h49.01.684,MA Experiment 2,2021.1.2,Win32,58.11250581,,,,,,,,,,
1.0599,response_1,shortValid,SHOULDER,POLICEMAN,,,,,,ATHLETE,IVORY,short,resources/sound/trials/audio_stim_comp57.mp3,60fd0ef6bf5253cae24e3c0d,33,Female,Right handed,2021-07-26_20h49.01.684,MA Experiment 2,2021.1.2,Win32,58.11250581,0,0,0,5,1,,,,,
1.585,response_2,longValid,TRAITOR,ADMIRAL,,,,,,MINER,EMERALD,short,resources/sound/trials/audio_stim_comp6.mp3,60fd0ef6bf5253cae24e3c0d,33,Female,Right handed,2021-07-26_20h49.01.684,MA Experiment 2,2021.1.2,Win32,58.11250581,0,1,1,1,1,,,,,
1.2999,response_1,shortFoil,KETTLE,NEWSPAPER,,,,,,PARTY,SANCTUARY,short,resources/sound/trials/audio_stim_human50.mp3,60fd0ef6bf5253cae24e3c0d,33,Female,Right handed,2021-07-26_20h49.01.684,MA Experiment 2,2021.1.2,Win32,58.11250581,0,2,2,14,1,,,,,
0.8155,response_2,,NEIGHBOUR,GRASSHOPPER,,,,,,NAVY,RECTANGLE,long,resources/sound/catchTrials/audio_control_comp_project06.mp3,60fd0ef6bf5253cae24e3c0d,33,Female,Right handed,2021-07-26_20h49.01.684,MA Experiment 2,2021.1.2,Win32,58.11250581,,,,,,0,17,17,22,1
1.5932,response_1,longFoil,INVOICE,MOLECULE,,,,,,DRIZZLE,CARDINAL,short,resources/sound/trials/audio_stim_comp69.mp3,60fd0ef6bf5253cae24e3c0d,33,Female,Right handed,2021-07-26_20h49.01.684,MA Experiment 2,2021.1.2,Win32,58.11250581,0,3,3,0,1,,,,,
1.5975,response_2,longFoil,HURDLE,ALPHABET,,,,,,DAYLIGHT,MATERIAL,long,resources/sound/trials/audio_stim_human42.mp3,60fd0ef6bf5253cae24e3c0d,33,Female,Right handed,2021-07-26_20h49.01.684,MA Experiment 2,2021.1.2,Win32,58.11250581,0,4,4,26,1,,,,,
1.7137,response_1,shortValid,MUSCLE,HEADQUARTERS,,,,,,MINER,EMERALD,short,resources/sound/trials/audio_stim_human6.mp3,60fd0ef6bf5253cae24e3c0d,33,Female,Right handed,2021-07-26_20h49.01.684,MA Experiment 2,2021.1.2,Win32,58.11250581,0,5,5,13,1,,,,,
2.3195,response_2,shortFoil,FAIRY,CAPITAL,,,,,,PAINTER,VEHICLE,short,resources/sound/trials/audio_stim_human47.mp3,60fd0ef6bf5253cae24e3c0d,33,Female,Right handed,2021-07-26_20h49.01.684,MA Experiment 2,2021.1.2,Win32,58.11250581,0,6,6,11,1,,,,,
1.4972,response_1,,DANCER,INSTITUTE,,,,,,POISON,REVOLVER,short,resources/sound/catchTrials/audio_control_human_project01.mp3,60fd0ef6bf5253cae24e3c0d,33,Female,Right handed,2021-07-26_20h49.01.684,MA Experiment 2,2021.1.2,Win32,58.11250581,,,,,,0,18,18,9,1
1.384099999,response_1,shortValid,UNCLE,TEMPERATURE,,,,,,WORKER,VISITOR,short,resources/sound/trials/audio_stim_comp17.mp3,60fd0ef6bf5253cae24e3c0d,33,Female,Right handed,2021-07-26_20h49.01.684,MA Experiment 2,2021.1.2,Win32,58.11250581,0,7,7,6,1,,,,,
1.4335,response_1,shortValid,MEDICINE,POLIO,,,,,,ATHLETE,IVORY,long,resources/sound/trials/audio_stim_comp57.mp3,60fd0ef6bf5253cae24e3c0d,33,Female,Right handed,2021-07-26_20h49.01.684,MA Experiment 2,2021.1.2,Win32,58.11250581,0,8,8,22,1,,,,,
1.4292,response_2,shortValid,CAPTAIN,MERCURY,,,,,,MINER,EMERALD,long,resources/sound/trials/audio_stim_human6.mp3,60fd0ef6bf5253cae24e3c0d,33,Female,Right handed,2021-07-26_20h49.01.684,MA Experiment 2,2021.1.2,Win32,58.11250581,0,9,9,30,1,,,,,
1.1491,response_1,shortFoil,PODIUM,PROFESSOR,,,,,,DRIZZLE,CARDINAL,long,resources/sound/trials/audio_stim_comp69.mp3,60fd0ef6bf5253cae24e3c0d,33,Female,Right handed,2021-07-26_20h49.01.684,MA Experiment 2,2021.1.2,Win32,58.11250581,0,10,10,17,1,,,,,
1.7203,response_1,,DIAL,CANDLELIGHT,,,,,,POISON,REVOLVER,long,resources/sound/catchTrials/audio_control_human_project01.mp3,60fd0ef6bf5253cae24e3c0d,33,Female,Right handed,2021-07-26_20h49.01.684,MA Experiment 2,2021.1.2,Win32,58.11250581,,,,,,0,7,7,25,1
2.5606,response_2,shortFoil,CIGAR,INFECTION,,,,,,WHISTLE,TREASURER,short,resources/sound/trials/audio_stim_comp12.mp3,60fd0ef6bf5253cae24e3c0d,33,Female,Right handed,2021-07-26_20h49.01.684,MA Experiment 2,2021.1.2,Win32,58.11250581,0,11,11,3,1,,,,,
2.6983,response_1,shortFoil,RABBI,BEVERAGE,,,,,,MARBLE,CUSTOMER,short,resources/sound/trials/audio_stim_comp65.mp3,60fd0ef6bf5253cae24e3c0d,33,Female,Right handed,2021-07-26_20h49.01.684,MA Experiment 2,2021.1.2,Win32,58.11250581,0,12,12,4,1,,,,,
0.8307,response_1,longValid,BUTTER,CARNATION,,,,,,SACRED,GALAXY,long,resources/sound/trials/audio_stim_comp1.mp3,60fd0ef6bf5253cae24e3c0d,33,Female,Right handed,2021-07-26_20h49.01.684,MA Experiment 2,2021.1.2,Win32,58.11250581,0,13,13,24,1,,,,,
2.2495,response_1,longFoil,NAPKIN,MOSQUITO,,,,,,RECEIPT,LIMOUSINE,long,resources/sound/trials/audio_stim_comp40.mp3,60fd0ef6bf5253cae24e3c0d,33,Female,Right handed,2021-07-26_20h49.01.684,MA Experiment 2,2021.1.2,Win32,58.11250581,0,14,14,19,1,,,,,
1.8827,response_2,,FEVER,AMMONIA,,,,,,CORNER,ENGINEER,long,resources/sound/catchTrials/audio_control_comp_project14.mp3,60fd0ef6bf5253cae24e3c0d,33,Female,Right handed,2021-07-26_20h49.01.684,MA Experiment 2,2021.1.2,Win32,58.11250581,,,,,,0,20,20,17,1
1.641,response_1,shortFoil,MORNING,DIAMOND,,,,,,BRAINSTORM,GREEN NEEDLE,short,resources/sound/trials/audio_stim_original.mp3,60fd0ef6bf5253cae24e3c0d,33,Female,Right handed,2021-07-26_20h49.01.684,MA Experiment 2,2021.1.2,Win32,58.11250581,0,15,15,16,1,,,,,
1.5235,response_2,longValid,LIGHTNING,MONUMENT,,,,,,ROBBER,RATTLESNAKE,short,resources/sound/trials/audio_stim_human64.mp3,60fd0ef6bf5253cae24e3c0d,33,Female,Right handed,2021-07-26_20h49.01.684,MA Experiment 2,2021.1.2,Win32,58.11250581,0,16,16,15,1,,,,,
0.745400001,response_2,longValid,CANTEEN,DESTROYER,,,,,,HARDWARE,OVERCOAT,long,resources/sound/trials/audio_stim_human35.mp3,60fd0ef6bf5253cae24e3c0d,33,Female,Right handed,2021-07-26_20h49.01.684,MA Experiment 2,2021.1.2,Win32,58.11250581,0,17,17,25,1,,,,,
1.5349,response_1,shortValid,WIRE,GINGERBREAD,,,,,,WHISTLE,TREASURER,long,resources/sound/trials/audio_stim_comp12.mp3,60fd0ef6bf5253cae24e3c0d,33,Female,Right handed,2021-07-26_20h49.01.684,MA Experiment 2,2021.1.2,Win32,58.11250581,0,18,18,20,1,,,,,
1.279,response_2,,FATHER,FACTORY,,,,,,CORNER,ENGINEER,short,resources/sound/catchTrials/audio_control_comp_project14.mp3,60fd0ef6bf5253cae24e3c0d,33,Female,Right handed,2021-07-26_20h49.01.684,MA Experiment 2,2021.1.2,Win32,58.11250581,,,,,,0,16,16,1,1
1.3208,response_2,shortValid,NURSERY,AVENUE,,,,,,DAYLIGHT,MATERIAL,short,resources/sound/trials/audio_stim_human42.mp3,60fd0ef6bf5253cae24e3c0d,33,Female,Right handed,2021-07-26_20h49.01.684,MA Experiment 2,2021.1.2,Win32,58.11250581,0,19,19,9,1,,,,,
1.4248,response_1,shortFoil,KERNEL,MEDICINE,,,,,,WORKER,VISITOR,long,resources/sound/trials/audio_stim_comp17.mp3,60fd0ef6bf5253cae24e3c0d,33,Female,Right handed,2021-07-26_20h49.01.684,MA Experiment 2,2021.1.2,Win32,58.11250581,0,20,20,23,1,,,,,
1.4358,response_1,shortValid,STOCKING,MINISTER,,,,,,CONCRETE,ENEMY,long,resources/sound/trials/audio_stim_human67.mp3,60fd0ef6bf5253cae24e3c0d,33,Female,Right handed,2021-07-26_20h49.01.684,MA Experiment 2,2021.1.2,Win32,58.11250581,0,21,21,27,1,,,,,
1.686799999,response_2,longFoil,WAFER,MICROSCOPE,,,,,,MINER,EMERALD,long,resources/sound/trials/audio_stim_comp6.mp3,60fd0ef6bf5253cae24e3c0d,33,Female,Right handed,2021-07-26_20h49.01.684,MA Experiment 2,2021.1.2,Win32,58.11250581,0,22,22,18,1,,,,,
1.5207,response_1,,GIRDLE,ATTENDANT,,,,,,JUGGLER,DANDELION,long,resources/sound/catchTrials/audio_control_human_project09.mp3,60fd0ef6bf5253cae24e3c0d,33,Female,Right handed,2021-07-26_20h49.01.684,MA Experiment 2,2021.1.2,Win32,58.11250581,,,,,,0,19,19,31,1
1.0732,response_1,shortFoil,SOFA,PROPELLER,,,,,,RUBBER,PROPERTY,short,resources/sound/trials/audio_stim_human0.mp3,60fd0ef6bf5253cae24e3c0d,33,Female,Right handed,2021-07-26_20h49.01.684,MA Experiment 2,2021.1.2,Win32,58.11250581,0,23,23,12,1,,,,,
0.7326,response_2,longValid,PRINCESS,COMMITTEE,,,,,,RECEIPT,LIMOUSINE,short,resources/sound/trials/audio_stim_comp40.mp3,60fd0ef6bf5253cae24e3c0d,33,Female,Right handed,2021-07-26_20h49.01.684,MA Experiment 2,2021.1.2,Win32,58.11250581,0,24,24,2,1,,,,,
1.36,response_1,shortValid,SHEEPSKIN,INSTRUCTOR,,,,,,PAINTER,VEHICLE,long,resources/sound/trials/audio_stim_human47.mp3,60fd0ef6bf5253cae24e3c0d,33,Female,Right handed,2021-07-26_20h49.01.684,MA Experiment 2,2021.1.2,Win32,58.11250581,0,25,25,28,1,,,,,
1.3331,response_1,longValid,MEASLES,CATHEDRAL,,,,,,CONCRETE,ENEMY,short,resources/sound/trials/audio_stim_human67.mp3,60fd0ef6bf5253cae24e3c0d,33,Female,Right handed,2021-07-26_20h49.01.684,MA Experiment 2,2021.1.2,Win32,58.11250581,0,26,26,10,1,,,,,
1.0122,response_1,,SADDLE,SPECIALIST,,,,,,VIOLET,LUBRICANT,short,resources/sound/catchTrials/audio_control_comp_project07.mp3,60fd0ef6bf5253cae24e3c0d,33,Female,Right handed,2021-07-26_20h49.01.684,MA Experiment 2,2021.1.2,Win32,58.11250581,,,,,,0,3,3,3,1
1.4432,response_2,shortFoil,BURNER,CABINET,,,,,,MARBLE,CUSTOMER,long,resources/sound/trials/audio_stim_comp65.mp3,60fd0ef6bf5253cae24e3c0d,33,Female,Right handed,2021-07-26_20h49.01.684,MA Experiment 2,2021.1.2,Win32,58.11250581,0,27,27,21,1,,,,,
1.008900001,response_2,longValid,PIANO,CINNAMON,,,,,,SACRED,GALAXY,short,resources/sound/trials/audio_stim_comp1.mp3,60fd0ef6bf5253cae24e3c0d,33,Female,Right handed,2021-07-26_20h49.01.684,MA Experiment 2,2021.1.2,Win32,58.11250581,0,28,28,7,1,,,,,
1.5558,response_2,shortFoil,EVENING,ATHLETICS,,,,,,HARDWARE,OVERCOAT,short,resources/sound/trials/audio_stim_human35.mp3,60fd0ef6bf5253cae24e3c0d,33,Female,Right handed,2021-07-26_20h49.01.684,MA Experiment 2,2021.1.2,Win32,58.11250581,0,29,29,8,1,,,,,
1.5959,response_1,shortFoil,DIVING,CLARINET,,,,,,BRAINSTORM,GREEN NEEDLE,long,resources/sound/trials/audio_stim_original.mp3,60fd0ef6bf5253cae24e3c0d,33,Female,Right handed,2021-07-26_20h49.01.684,MA Experiment 2,2021.1.2,Win32,58.11250581,0,30,30,33,1,,,,,
1.379,response_1,,VILLAGE,PROJECTOR,,,,,,VIOLET,LUBRICANT,short,resources/sound/catchTrials/audio_control_human_project07.mp3,60fd0ef6bf5253cae24e3c0d,33,Female,Right handed,2021-07-26_20h49.01.684,MA Experiment 2,2021.1.2,Win32,58.11250581,,,,,,0,25,25,12,1
1.2857,response_2,shortFoil,CRYSTAL,APPLIANCE,,,,,,PARTY,SANCTUARY,long,resources/sound/trials/audio_stim_human50.mp3,60fd0ef6bf5253cae24e3c0d,33,Female,Right handed,2021-07-26_20h49.01.684,MA Experiment 2,2021.1.2,Win32,58.11250581,0,31,31,31,1,,,,,
1.6835,response_2,shortValid,EARTHWORM,LECTURER,,,,,,ROBBER,RATTLESNAKE,long,resources/sound/trials/audio_stim_human64.mp3,60fd0ef6bf5253cae24e3c0d,33,Female,Right handed,2021-07-26_20h49.01.684,MA Experiment 2,2021.1.2,Win32,58.11250581,0,32,32,32,1,,,,,
0.8224,response_1,shortValid,ANCHOR,HOSPITAL,,,,,,RUBBER,PROPERTY,long,resources/sound/trials/audio_stim_human0.mp3,60fd0ef6bf5253cae24e3c0d,33,Female,Right handed,2021-07-26_20h49.01.684,MA Experiment 2,2021.1.2,Win32,58.11250581,0,33,33,29,1,,,,,
1.0045,response_2,longValid,MISTRESS,INJURY,,,,,,ROBBER,RATTLESNAKE,long,resources/sound/trials/audio_stim_human64.mp3,60fd0ef6bf5253cae24e3c0d,33,Female,Right handed,2021-07-26_20h49.01.684,MA Experiment 2,2021.1.2,Win32,58.11250581,1,0,34,32,1,,,,,
1.3739,response_1,longFoil,OLIVE,UMBRELLA,,,,,,BRAINSTORM,GREEN NEEDLE,long,resources/sound/trials/audio_stim_original.mp3,60fd0ef6bf5253cae24e3c0d,33,Female,Right handed,2021-07-26_20h49.01.684,MA Experiment 2,2021.1.2,Win32,58.11250581,1,1,35,33,1,,,,,
1.529799999,response_2,longFoil,NATIVE,LEMONADE,,,,,,DAYLIGHT,MATERIAL,short,resources/sound/trials/audio_stim_human42.mp3,60fd0ef6bf5253cae24e3c0d,33,Female,Right handed,2021-07-26_20h49.01.684,MA Experiment 2,2021.1.2,Win32,58.11250581,1,2,36,9,1,,,,,
0.8972,response_2,,PIPING,ABDOMEN,,,,,,JOURNAL,ROBBERY,short,resources/sound/catchTrials/audio_control_human_project02.mp3,60fd0ef6bf5253cae24e3c0d,33,Female,Right handed,2021-07-26_20h49.01.684,MA Experiment 2,2021.1.2,Win32,58.11250581,,,,,,0,30,30,13,1
0.852200001,response_1,longFoil,STATION,MINERAL,,,,,,WORKER,VISITOR,long,resources/sound/trials/audio_stim_comp17.mp3,60fd0ef6bf5253cae24e3c0d,33,Female,Right handed,2021-07-26_20h49.01.684,MA Experiment 2,2021.1.2,Win32,58.11250581,1,3,37,23,1,,,,,
1.8318,response_1,shortFoil,NECKLACE,GORILLA,,,,,,DRIZZLE,CARDINAL,short,resources/sound/trials/audio_stim_comp69.mp3,60fd0ef6bf5253cae24e3c0d,33,Female,Right handed,2021-07-26_20h49.01.684,MA Experiment 2,2021.1.2,Win32,58.11250581,1,4,38,0,1,,,,,
0.996900001,response_1,shortValid,ACRE,JANITOR,,,,,,MARBLE,CUSTOMER,short,resources/sound/trials/audio_stim_comp65.mp3,60fd0ef6bf5253cae24e3c0d,33,Female,Right handed,2021-07-26_20h49.01.684,MA Experiment 2,2021.1.2,Win32,58.11250581,1,5,39,4,1,,,,,
1.1015,response_2,longFoil,DECOY,HURRICANE,,,,,,SACRED,GALAXY,short,resources/sound/trials/audio_stim_comp1.mp3,60fd0ef6bf5253cae24e3c0d,33,Female,Right handed,2021-07-26_20h49.01.684,MA Experiment 2,2021.1.2,Win32,58.11250581,1,6,40,7,1,,,,,
1.7215,response_2,,POLO,EMULSION,,,,,,CORNER,ENGINEER,long,resources/sound/catchTrials/audio_control_human_project14.mp3,60fd0ef6bf5253cae24e3c0d,33,Female,Right handed,2021-07-26_20h49.01.684,MA Experiment 2,2021.1.2,Win32,58.11250581,,,,,,0,10,10,26,1
1.822,response_2,shortFoil,INCOME,MESSENGER,,,,,,RUBBER,PROPERTY,long,resources/sound/trials/audio_stim_human0.mp3,60fd0ef6bf5253cae24e3c0d,33,Female,Right handed,2021-07-26_20h49.01.684,MA Experiment 2,2021.1.2,Win32,58.11250581,1,7,41,29,1,,,,,
1.3357,response_2,shortFoil,MOONLIGHT,NEIGHBOURHOOD,,,,,,MINER,EMERALD,long,resources/sound/trials/audio_stim_comp6.mp3,60fd0ef6bf5253cae24e3c0d,33,Female,Right handed,2021-07-26_20h49.01.684,MA Experiment 2,2021.1.2,Win32,58.11250581,1,8,42,18,1,,,,,
1.710799999,response_2,longFoil,LOBSTER,INDUSTRY,,,,,,MARBLE,CUSTOMER,long,resources/sound/trials/audio_stim_comp65.mp3,60fd0ef6bf5253cae24e3c0d,33,Female,Right handed,2021-07-26_20h49.01.684,MA Experiment 2,2021.1.2,Win32,58.11250581,1,9,43,21,1,,,,,
1.0172,response_1,longValid,CABIN,PHOTOGRAPH,,,,,,HARDWARE,OVERCOAT,short,resources/sound/trials/audio_stim_human35.mp3,60fd0ef6bf5253cae24e3c0d,33,Female,Right handed,2021-07-26_20h49.01.684,MA Experiment 2,2021.1.2,Win32,58.11250581,1,10,44,8,1,,,,,
2.4819,response_2,,VESSEL,FAMILY,,,,,,NAVY,RECTANGLE,short,resources/sound/catchTrials/audio_control_human_project06.mp3,60fd0ef6bf5253cae24e3c0d,33,Female,Right handed,2021-07-26_20h49.01.684,MA Experiment 2,2021.1.2,Win32,58.11250581,,,,,,0,31,31,14,1
1.0682,response_2,shortValid,CEREAL,ENVELOPE,,,,,,RECEIPT,LIMOUSINE,short,resources/sound/trials/audio_stim_comp40.mp3,60fd0ef6bf5253cae24e3c0d,33,Female,Right handed,2021-07-26_20h49.01.684,MA Experiment 2,2021.1.2,Win32,58.11250581,1,11,45,2,1,,,,,
1.5953,response_2,longFoil,WRITING,CAMERA,,,,,,PARTY,SANCTUARY,long,resources/sound/trials/audio_stim_human50.mp3,60fd0ef6bf5253cae24e3c0d,33,Female,Right handed,2021-07-26_20h49.01.684,MA Experiment 2,2021.1.2,Win32,58.11250581,1,12,46,31,1,,,,,
1.3323,response_2,shortValid,GRADUATE,BUTTERFLY,,,,,,DAYLIGHT,MATERIAL,long,resources/sound/trials/audio_stim_human42.mp3,60fd0ef6bf5253cae24e3c0d,33,Female,Right handed,2021-07-26_20h49.01.684,MA Experiment 2,2021.1.2,Win32,58.11250581,1,13,47,26,1,,,,,
1.5932,response_1,shortValid,PERSON,CORRIDOR,,,,,,DRIZZLE,CARDINAL,long,resources/sound/trials/audio_stim_comp69.mp3,60fd0ef6bf5253cae24e3c0d,33,Female,Right handed,2021-07-26_20h49.01.684,MA Experiment 2,2021.1.2,Win32,58.11250581,1,14,48,17,1,,,,,
1.1697,response_2,,FOREARM,FURNITURE,,,,,,NAVY,RECTANGLE,short,resources/sound/catchTrials/audio_control_comp_project06.mp3,60fd0ef6bf5253cae24e3c0d,33,Female,Right handed,2021-07-26_20h49.01.684,MA Experiment 2,2021.1.2,Win32,58.11250581,,,,,,0,22,22,6,1
0.9523,response_1,longFoil,WALRUS,VINEGAR,,,,,,MINER,EMERALD,long,resources/sound/trials/audio_stim_human6.mp3,60fd0ef6bf5253cae24e3c0d,33,Female,Right handed,2021-07-26_20h49.01.684,MA Experiment 2,2021.1.2,Win32,58.11250581,1,15,49,30,1,,,,,
1.4456,response_2,longFoil,DWELLER,SAXOPHONE,,,,,,SACRED,GALAXY,long,resources/sound/trials/audio_stim_comp1.mp3,60fd0ef6bf5253cae24e3c0d,33,Female,Right handed,2021-07-26_20h49.01.684,MA Experiment 2,2021.1.2,Win32,58.11250581,1,16,50,24,1,,,,,
1.9397,response_1,longFoil,HAMSTER,AMBULANCE,,,,,,RUBBER,PROPERTY,short,resources/sound/trials/audio_stim_human0.mp3,60fd0ef6bf5253cae24e3c0d,33,Female,Right handed,2021-07-26_20h49.01.684,MA Experiment 2,2021.1.2,Win32,58.11250581,1,17,51,12,1,,,,,
2.9792,response_2,shortFoil,DOORWAY,ENAMEL,,,,,,ATHLETE,IVORY,short,resources/sound/trials/audio_stim_comp57.mp3,60fd0ef6bf5253cae24e3c0d,33,Female,Right handed,2021-07-26_20h49.01.684,MA Experiment 2,2021.1.2,Win32,58.11250581,1,18,52,5,1,,,,,
1.5591,response_2,,MURDER,ICICLE,,,,,,CORNER,ENGINEER,short,resources/sound/catchTrials/audio_control_human_project14.mp3,60fd0ef6bf5253cae24e3c0d,33,Female,Right handed,2021-07-26_20h49.01.684,MA Experiment 2,2021.1.2,Win32,58.11250581,,,,,,0,4,4,10,1
1.3849,response_2,longValid,KENNEL,PHYSICIAN,,,,,,ATHLETE,IVORY,long,resources/sound/trials/audio_stim_comp57.mp3,60fd0ef6bf5253cae24e3c0d,33,Female,Right handed,2021-07-26_20h49.01.684,MA Experiment 2,2021.1.2,Win32,58.11250581,1,19,53,22,1,,,,,
1.2484,response_2,shortFoil,PATIENT,CROCODILE,,,,,,HARDWARE,OVERCOAT,long,resources/sound/trials/audio_stim_human35.mp3,60fd0ef6bf5253cae24e3c0d,33,Female,Right handed,2021-07-26_20h49.01.684,MA Experiment 2,2021.1.2,Win32,58.11250581,1,20,54,25,1,,,,,
1.616900001,response_1,longValid,TORTURE,ASBESTOS,,,,,,WHISTLE,TREASURER,long,resources/sound/trials/audio_stim_comp12.mp3,60fd0ef6bf5253cae24e3c0d,33,Female,Right handed,2021-07-26_20h49.01.684,MA Experiment 2,2021.1.2,Win32,58.11250581,1,21,55,20,1,,,,,
0.4241,response_1,shortValid,OFFICE,CITIZEN,,,,,,WHISTLE,TREASURER,short,resources/sound/trials/audio_stim_comp12.mp3,60fd0ef6bf5253cae24e3c0d,33,Female,Right handed,2021-07-26_20h49.01.684,MA Experiment 2,2021.1.2,Win32,58.11250581,1,22,56,3,1,,,,,
1.5735,response_2,,CHIPMUNK,GYMNASTICS,,,,,,IRIS,VIOLIN,short,resources/sound/catchTrials/audio_control_human_project12.mp3,60fd0ef6bf5253cae24e3c0d,33,Female,Right handed,2021-07-26_20h49.01.684,MA Experiment 2,2021.1.2,Win32,58.11250581,,,,,,0,11,11,8,1
1.9843,response_2,longValid,LIQUID,ANTIQUE,,,,,,RECEIPT,LIMOUSINE,long,resources/sound/trials/audio_stim_comp40.mp3,60fd0ef6bf5253cae24e3c0d,33,Female,Right handed,2021-07-26_20h49.01.684,MA Experiment 2,2021.1.2,Win32,58.11250581,1,23,57,19,1,,,,,
1.293,response_2,shortValid,HAMMER,GALLERY,,,,,,ROBBER,RATTLESNAKE,short,resources/sound/trials/audio_stim_human64.mp3,60fd0ef6bf5253cae24e3c0d,33,Female,Right handed,2021-07-26_20h49.01.684,MA Experiment 2,2021.1.2,Win32,58.11250581,1,24,58,15,1,,,,,
1.498099999,response_1,longFoil,SINGER,TANGERINE,,,,,,PAINTER,VEHICLE,long,resources/sound/trials/audio_stim_human47.mp3,60fd0ef6bf5253cae24e3c0d,33,Female,Right handed,2021-07-26_20h49.01.684,MA Experiment 2,2021.1.2,Win32,58.11250581,1,25,59,28,1,,,,,
1.165,response_1,longFoil,SEGMENT,HANDKERCHIEF,,,,,,WORKER,VISITOR,short,resources/sound/trials/audio_stim_comp17.mp3,60fd0ef6bf5253cae24e3c0d,33,Female,Right handed,2021-07-26_20h49.01.684,MA Experiment 2,2021.1.2,Win32,58.11250581,1,26,60,6,1,,,,,
2.0324,response_2,,JURY,OXYGEN,,,,,,BORDER,ALGEBRA,long,resources/sound/catchTrials/audio_control_comp_project00.mp3,60fd0ef6bf5253cae24e3c0d,33,Female,Right handed,2021-07-26_20h49.01.684,MA Experiment 2,2021.1.2,Win32,58.11250581,,,,,,0,26,26,16,1
1.7953,response_2,longFoil,RUSTY,STRAWBERRY,,,,,,MINER,EMERALD,short,resources/sound/trials/audio_stim_comp6.mp3,60fd0ef6bf5253cae24e3c0d,33,Female,Right handed,2021-07-26_20h49.01.684,MA Experiment 2,2021.1.2,Win32,58.11250581,1,27,61,1,1,,,,,
0.8768,response_2,longFoil,HARBOUR,SETTLEMENT,,,,,,PARTY,SANCTUARY,short,resources/sound/trials/audio_stim_human50.mp3,60fd0ef6bf5253cae24e3c0d,33,Female,Right handed,2021-07-26_20h49.01.684,MA Experiment 2,2021.1.2,Win32,58.11250581,1,28,62,14,1,,,,,
1.9475,response_1,longFoil,SCOOTER,OPENING,,,,,,PAINTER,VEHICLE,short,resources/sound/trials/audio_stim_human47.mp3,60fd0ef6bf5253cae24e3c0d,33,Female,Right handed,2021-07-26_20h49.01.684,MA Experiment 2,2021.1.2,Win32,58.11250581,1,29,63,11,1,,,,,
1.718,response_2,longFoil,CURFEW,FISHERMAN,,,,,,MINER,EMERALD,short,resources/sound/trials/audio_stim_human6.mp3,60fd0ef6bf5253cae24e3c0d,33,Female,Right handed,2021-07-26_20h49.01.684,MA Experiment 2,2021.1.2,Win32,58.11250581,1,30,64,13,1,,,,,
1.6155,response_2,,BISHOP,CHOCOLATE,,,,,,SPINACH,APRICOT,short,resources/sound/catchTrials/audio_control_comp_project18.mp3,60fd0ef6bf5253cae24e3c0d,33,Female,Right handed,2021-07-26_20h49.01.684,MA Experiment 2,2021.1.2,Win32,58.11250581,,,,,,0,8,8,5,1
1.6727,response_2,longValid,PICTURE,RETAILER,,,,,,CONCRETE,ENEMY,long,resources/sound/trials/audio_stim_human67.mp3,60fd0ef6bf5253cae24e3c0d,33,Female,Right handed,2021-07-26_20h49.01.684,MA Experiment 2,2021.1.2,Win32,58.11250581,1,31,65,27,1,,,,,
1.7839,response_2,shortFoil,TEMPLE,GOVERNMENT,,,,,,CONCRETE,ENEMY,short,resources/sound/trials/audio_stim_human67.mp3,60fd0ef6bf5253cae24e3c0d,33,Female,Right handed,2021-07-26_20h49.01.684,MA Experiment 2,2021.1.2,Win32,58.11250581,1,32,66,10,1,,,,,
1.6107,response_1,longFoil,LEADER,MECHANIC,,,,,,BRAINSTORM,GREEN NEEDLE,short,resources/sound/trials/audio_stim_original.mp3,60fd0ef6bf5253cae24e3c0d,33,Female,Right handed,2021-07-26_20h49.01.684,MA Experiment 2,2021.1.2,Win32,58.11250581,1,33,67,16,1,,,,,
1.741,response_1,shortValid,WINDOW,HONEYMOON,,,,,,MARBLE,CUSTOMER,long,resources/sound/trials/audio_stim_comp65.mp3,60fd0ef6bf5253cae24e3c0d,33,Female,Right handed,2021-07-26_20h49.01.684,MA Experiment 2,2021.1.2,Win32,58.11250581,2,0,68,21,1,,,,,
1.564099999,response_1,longFoil,DOORWAY,INSTRUMENT,,,,,,MARBLE,CUSTOMER,short,resources/sound/trials/audio_stim_comp65.mp3,60fd0ef6bf5253cae24e3c0d,33,Female,Right handed,2021-07-26_20h49.01.684,MA Experiment 2,2021.1.2,Win32,58.11250581,2,1,69,4,1,,,,,
1.366700001,response_1,shortFoil,HAMSTER,CAMERA,,,,,,PAINTER,VEHICLE,long,resources/sound/trials/audio_stim_human47.mp3,60fd0ef6bf5253cae24e3c0d,33,Female,Right handed,2021-07-26_20h49.01.684,MA Experiment 2,2021.1.2,Win32,58.11250581,2,2,70,28,1,,,,,
1.7533,response_2,,INCOME,ATTENDANT,,,,,,BORDER,ALGEBRA,short,resources/sound/catchTrials/audio_control_comp_project00.mp3,60fd0ef6bf5253cae24e3c0d,33,Female,Right handed,2021-07-26_20h49.01.684,MA Experiment 2,2021.1.2,Win32,58.11250581,,,,,,0,12,12,0,1
1.4634,response_2,shortValid,DIVING,MERCURY,,,,,,PARTY,SANCTUARY,long,resources/sound/trials/audio_stim_human50.mp3,60fd0ef6bf5253cae24e3c0d,33,Female,Right handed,2021-07-26_20h49.01.684,MA Experiment 2,2021.1.2,Win32,58.11250581,2,3,71,31,1,,,,,
0.8877,response_2,longFoil,SHEEPSKIN,LECTURER,,,,,,ROBBER,RATTLESNAKE,long,resources/sound/trials/audio_stim_human64.mp3,60fd0ef6bf5253cae24e3c0d,33,Female,Right handed,2021-07-26_20h49.01.684,MA Experiment 2,2021.1.2,Win32,58.11250581,2,4,72,32,1,,,,,
1.499700001,response_1,shortValid,CIGAR,VINEGAR,,,,,,HARDWARE,OVERCOAT,short,resources/sound/trials/audio_stim_human35.mp3,60fd0ef6bf5253cae24e3c0d,33,Female,Right handed,2021-07-26_20h49.01.684,MA Experiment 2,2021.1.2,Win32,58.11250581,2,5,73,8,1,,,,,
1.441599999,response_1,shortValid,UNCLE,GRASSHOPPER,,,,,,CONCRETE,ENEMY,short,resources/sound/trials/audio_stim_human67.mp3,60fd0ef6bf5253cae24e3c0d,33,Female,Right handed,2021-07-26_20h49.01.684,MA Experiment 2,2021.1.2,Win32,58.11250581,2,6,74,10,1,,,,,
2.082400001,response_2,,CAPTAIN,DIAMOND,,,,,,SPINACH,APRICOT,long,resources/sound/catchTrials/audio_control_comp_project18.mp3,60fd0ef6bf5253cae24e3c0d,33,Female,Right handed,2021-07-26_20h49.01.684,MA Experiment 2,2021.1.2,Win32,58.11250581,,,,,,0,13,13,21,1
1.764200001,response_1,shortFoil,CANTEEN,PROPELLER,,,,,,ATHLETE,IVORY,long,resources/sound/trials/audio_stim_comp57.mp3,60fd0ef6bf5253cae24e3c0d,33,Female,Right handed,2021-07-26_20h49.01.684,MA Experiment 2,2021.1.2,Win32,58.11250581,2,7,75,22,1,,,,,
0.805099999,response_1,shortValid,ANCHOR,CLARINET,,,,,,DRIZZLE,CARDINAL,short,resources/sound/trials/audio_stim_comp69.mp3,60fd0ef6bf5253cae24e3c0d,33,Female,Right handed,2021-07-26_20h49.01.684,MA Experiment 2,2021.1.2,Win32,58.11250581,2,8,76,0,1,,,,,
0.7747,response_1,longValid,PICTURE,CATHEDRAL,,,,,,DRIZZLE,CARDINAL,long,resources/sound/trials/audio_stim_comp69.mp3,60fd0ef6bf5253cae24e3c0d,33,Female,Right handed,2021-07-26_20h49.01.684,MA Experiment 2,2021.1.2,Win32,58.11250581,2,9,77,17,1,,,,,
1.802200001,response_2,longValid,TUMBLE,GOVERNMENT,,,,,,RUBBER,PROPERTY,short,resources/sound/trials/audio_stim_human0.mp3,60fd0ef6bf5253cae24e3c0d,33,Female,Right handed,2021-07-26_20h49.01.684,MA Experiment 2,2021.1.2,Win32,58.11250581,2,10,78,12,1,,,,,
2.2308,response_1,,BUTTER,MOSQUITO,,,,,,VIOLET,LUBRICANT,long,resources/sound/catchTrials/audio_control_human_project07.mp3,60fd0ef6bf5253cae24e3c0d,33,Female,Right handed,2021-07-26_20h49.01.684,MA Experiment 2,2021.1.2,Win32,58.11250581,,,,,,0,6,6,28,1
1.9731,response_1,shortValid,WALRUS,PHYSICIAN,,,,,,BRAINSTORM,GREEN NEEDLE,short,resources/sound/trials/audio_stim_original.mp3,60fd0ef6bf5253cae24e3c0d,33,Female,Right handed,2021-07-26_20h49.01.684,MA Experiment 2,2021.1.2,Win32,58.11250581,2,11,79,16,1,,,,,
0.6945,response_2,shortValid,TEMPLE,PROFESSOR,,,,,,HARDWARE,OVERCOAT,long,resources/sound/trials/audio_stim_human35.mp3,60fd0ef6bf5253cae24e3c0d,33,Female,Right handed,2021-07-26_20h49.01.684,MA Experiment 2,2021.1.2,Win32,58.11250581,2,12,80,25,1,,,,,
1.4433,response_2,shortFoil,BISHOP,ANTIQUE,,,,,,MINER,EMERALD,short,resources/sound/trials/audio_stim_human6.mp3,60fd0ef6bf5253cae24e3c0d,33,Female,Right handed,2021-07-26_20h49.01.684,MA Experiment 2,2021.1.2,Win32,58.11250581,2,13,81,13,1,,,,,
2.4072,response_2,longValid,DANCER,APPLIANCE,,,,,,DAYLIGHT,MATERIAL,short,resources/sound/trials/audio_stim_human42.mp3,60fd0ef6bf5253cae24e3c0d,33,Female,Right handed,2021-07-26_20h49.01.684,MA Experiment 2,2021.1.2,Win32,58.11250581,2,14,82,9,1,,,,,
1.8902,response_2,,MORNING,BUTTERFLY,,,,,,IRIS,VIOLIN,short,resources/sound/catchTrials/audio_control_comp_project12.mp3,60fd0ef6bf5253cae24e3c0d,33,Female,Right handed,2021-07-26_20h49.01.684,MA Experiment 2,2021.1.2,Win32,58.11250581,,,,,,0,5,5,4,1
2.2035,response_1,longFoil,GIRDLE,RETAILER,,,,,,WHISTLE,TREASURER,long,resources/sound/trials/audio_stim_comp12.mp3,60fd0ef6bf5253cae24e3c0d,33,Female,Right handed,2021-07-26_20h49.01.684,MA Experiment 2,2021.1.2,Win32,58.11250581,2,15,83,20,1,,,,,
2.0067,response_2,longValid,NAPKIN,MINISTER,,,,,,PAINTER,VEHICLE,short,resources/sound/trials/audio_stim_human47.mp3,60fd0ef6bf5253cae24e3c0d,33,Female,Right handed,2021-07-26_20h49.01.684,MA Experiment 2,2021.1.2,Win32,58.11250581,2,16,84,11,1,,,,,
0.8534,response_2,longFoil,SHOULDER,CARNATION,,,,,,ROBBER,RATTLESNAKE,short,resources/sound/trials/audio_stim_human64.mp3,60fd0ef6bf5253cae24e3c0d,33,Female,Right handed,2021-07-26_20h49.01.684,MA Experiment 2,2021.1.2,Win32,58.11250581,2,17,85,15,1,,,,,
2.1242,response_2,shortFoil,FAIRY,ALCOHOL,,,,,,MINER,EMERALD,short,resources/sound/trials/audio_stim_comp6.mp3,60fd0ef6bf5253cae24e3c0d,33,Female,Right handed,2021-07-26_20h49.01.684,MA Experiment 2,2021.1.2,Win32,58.11250581,2,18,86,1,1,,,,,
0.91,response_2,,DUEL,TEMPERATURE,,,,,,HOBBY,COLONY,short,resources/sound/catchTrials/audio_control_comp_project04.mp3,60fd0ef6bf5253cae24e3c0d,33,Female,Right handed,2021-07-26_20h49.01.684,MA Experiment 2,2021.1.2,Win32,58.11250581,,,,,,0,2,2,2,1
2.232099999,response_2,longValid,WIRE,CITIZEN,,,,,,WORKER,VISITOR,short,resources/sound/trials/audio_stim_comp17.mp3,60fd0ef6bf5253cae24e3c0d,33,Female,Right handed,2021-07-26_20h49.01.684,MA Experiment 2,2021.1.2,Win32,58.11250581,2,19,87,6,1,,,,,
3.019400001,response_1,longValid,LIQUID,ORNAMENT,,,,,,MINER,EMERALD,long,resources/sound/trials/audio_stim_human6.mp3,60fd0ef6bf5253cae24e3c0d,33,Female,Right handed,2021-07-26_20h49.01.684,MA Experiment 2,2021.1.2,Win32,58.11250581,2,20,88,30,1,,,,,
1.6394,response_2,longValid,KENNEL,CAPITAL,,,,,,WORKER,VISITOR,long,resources/sound/trials/audio_stim_comp17.mp3,60fd0ef6bf5253cae24e3c0d,33,Female,Right handed,2021-07-26_20h49.01.684,MA Experiment 2,2021.1.2,Win32,58.11250581,2,21,89,23,1,,,,,
2.787900001,response_1,shortValid,INVOICE,HONEYMOON,,,,,,RECEIPT,LIMOUSINE,long,resources/sound/trials/audio_stim_comp40.mp3,60fd0ef6bf5253cae24e3c0d,33,Female,Right handed,2021-07-26_20h49.01.684,MA Experiment 2,2021.1.2,Win32,58.11250581,2,22,90,19,1,,,,,
1.6765,response_2,,MUSCLE,CABINET,,,,,,JOURNAL,ROBBERY,long,resources/sound/catchTrials/audio_control_human_project02.mp3,60fd0ef6bf5253cae24e3c0d,33,Female,Right handed,2021-07-26_20h49.01.684,MA Experiment 2,2021.1.2,Win32,58.11250581,,,,,,0,14,14,29,1
0.6388,response_2,longValid,NOVEL,ADMIRAL,,,,,,DAYLIGHT,MATERIAL,long,resources/sound/trials/audio_stim_human42.mp3,60fd0ef6bf5253cae24e3c0d,33,Female,Right handed,2021-07-26_20h49.01.684,MA Experiment 2,2021.1.2,Win32,58.11250581,2,23,91,26,1,,,,,
2.5581,response_2,longFoil,SOFA,TANGERINE,,,,,,CONCRETE,ENEMY,long,resources/sound/trials/audio_stim_human67.mp3,60fd0ef6bf5253cae24e3c0d,33,Female,Right handed,2021-07-26_20h49.01.684,MA Experiment 2,2021.1.2,Win32,58.11250581,2,24,92,27,1,,,,,
2.7441,response_1,shortValid,PODIUM,FAMILY,,,,,,SACRED,GALAXY,long,resources/sound/trials/audio_stim_comp1.mp3,60fd0ef6bf5253cae24e3c0d,33,Female,Right handed,2021-07-26_20h49.01.684,MA Experiment 2,2021.1.2,Win32,58.11250581,2,25,93,24,1,,,,,
1.5341,response_1,longValid,BURNER,EMULSION,,,,,,ATHLETE,IVORY,short,resources/sound/trials/audio_stim_comp57.mp3,60fd0ef6bf5253cae24e3c0d,33,Female,Right handed,2021-07-26_20h49.01.684,MA Experiment 2,2021.1.2,Win32,58.11250581,2,26,94,5,1,,,,,
,,,NATIVE,ALPHABET,,,,,,IRIS,VIOLIN,long,resources/sound/catchTrials/audio_control_human_project12.mp3,60fd0ef6bf5253cae24e3c0d,33,Female,Right handed,2021-07-26_20h49.01.684,MA Experiment 2,2021.1.2,Win32,58.11250581,,,,,,0,28,28,24,1
1.657,response_1,shortValid,MOONLIGHT,INFECTION,,,,,,BRAINSTORM,GREEN NEEDLE,long,resources/sound/trials/audio_stim_original.mp3,60fd0ef6bf5253cae24e3c0d,33,Female,Right handed,2021-07-26_20h49.01.684,MA Experiment 2,2021.1.2,Win32,58.11250581,2,27,95,33,1,,,,,
1.2788,response_1,shortValid,NEIGHBOUR,PROJECTOR,,,,,,SACRED,GALAXY,short,resources/sound/trials/audio_stim_comp1.mp3,60fd0ef6bf5253cae24e3c0d,33,Female,Right handed,2021-07-26_20h49.01.684,MA Experiment 2,2021.1.2,Win32,58.11250581,2,28,96,7,1,,,,,
1.4972,response_2,longValid,WAFER,NEWSPAPER,,,,,,RUBBER,PROPERTY,long,resources/sound/trials/audio_stim_human0.mp3,60fd0ef6bf5253cae24e3c0d,33,Female,Right handed,2021-07-26_20h49.01.684,MA Experiment 2,2021.1.2,Win32,58.11250581,2,29,97,29,1,,,,,
1.7709,response_2,shortValid,VAPOUR,FISHERMAN,,,,,,PARTY,SANCTUARY,short,resources/sound/trials/audio_stim_human50.mp3,60fd0ef6bf5253cae24e3c0d,33,Female,Right handed,2021-07-26_20h49.01.684,MA Experiment 2,2021.1.2,Win32,58.11250581,2,30,98,14,1,,,,,
1.7344,response_2,,SULPHUR,MONUMENT,,,,,,ICY,JITTERBUG,long,resources/sound/catchTrials/audio_control_comp_project08.mp3,60fd0ef6bf5253cae24e3c0d,33,Female,Right handed,2021-07-26_20h49.01.684,MA Experiment 2,2021.1.2,Win32,58.11250581,,,,,,0,24,24,23,1
1.0265,response_1,shortValid,OLIVE,INSTRUCTOR,,,,,,MINER,EMERALD,long,resources/sound/trials/audio_stim_comp6.mp3,60fd0ef6bf5253cae24e3c0d,33,Female,Right handed,2021-07-26_20h49.01.684,MA Experiment 2,2021.1.2,Win32,58.11250581,2,31,99,18,1,,,,,
2.3925,response_1,shortFoil,OFFICE,JANITOR,,,,,,RECEIPT,LIMOUSINE,short,resources/sound/trials/audio_stim_comp40.mp3,60fd0ef6bf5253cae24e3c0d,33,Female,Right handed,2021-07-26_20h49.01.684,MA Experiment 2,2021.1.2,Win32,58.11250581,2,32,100,2,1,,,,,
2.852,response_2,longFoil,WRITING,CINNAMON,,,,,,WHISTLE,TREASURER,short,resources/sound/trials/audio_stim_comp12.mp3,60fd0ef6bf5253cae24e3c0d,33,Female,Right handed,2021-07-26_20h49.01.684,MA Experiment 2,2021.1.2,Win32,58.11250581,2,33,101,3,1,,,,,
2.2914,response_1,shortFoil,HARBOUR,CANDLELIGHT,,,,,,RECEIPT,LIMOUSINE,long,resources/sound/trials/audio_stim_comp40.mp3,60fd0ef6bf5253cae24e3c0d,33,Female,Right handed,2021-07-26_20h49.01.684,MA Experiment 2,2021.1.2,Win32,58.11250581,3,0,102,19,1,,,,,
1.0195,response_1,longValid,CABIN,ATHLETICS,,,,,,BRAINSTORM,GREEN NEEDLE,short,resources/sound/trials/audio_stim_original.mp3,60fd0ef6bf5253cae24e3c0d,33,Female,Right handed,2021-07-26_20h49.01.684,MA Experiment 2,2021.1.2,Win32,58.11250581,3,1,103,16,1,,,,,
1.3565,response_2,shortValid,FOREARM,UMBRELLA,,,,,,RUBBER,PROPERTY,short,resources/sound/trials/audio_stim_human0.mp3,60fd0ef6bf5253cae24e3c0d,33,Female,Right handed,2021-07-26_20h49.01.684,MA Experiment 2,2021.1.2,Win32,58.11250581,3,2,104,12,1,,,,,
0.5181,response_2,,NECKLACE,SETTLEMENT,,,,,,HOBBY,COLONY,short,resources/sound/catchTrials/audio_control_human_project04.mp3,60fd0ef6bf5253cae24e3c0d,33,Female,Right handed,2021-07-26_20h49.01.684,MA Experiment 2,2021.1.2,Win32,58.11250581,,,,,,0,27,27,11,1
1.5052,response_2,shortFoil,WINDOW,GALLERY,,,,,,WORKER,VISITOR,short,resources/sound/trials/audio_stim_comp17.mp3,60fd0ef6bf5253cae24e3c0d,33,Female,Right handed,2021-07-26_20h49.01.684,MA Experiment 2,2021.1.2,Win32,58.11250581,3,3,105,6,1,,,,,
1.1258,response_1,shortFoil,FEVER,STRAWBERRY,,,,,,MINER,EMERALD,long,resources/sound/trials/audio_stim_human6.mp3,60fd0ef6bf5253cae24e3c0d,33,Female,Right handed,2021-07-26_20h49.01.684,MA Experiment 2,2021.1.2,Win32,58.11250581,3,4,106,30,1,,,,,
1.1996,response_1,shortFoil,STATION,MEDICINE,,,,,,SACRED,GALAXY,long,resources/sound/trials/audio_stim_comp1.mp3,60fd0ef6bf5253cae24e3c0d,33,Female,Right handed,2021-07-26_20h49.01.684,MA Experiment 2,2021.1.2,Win32,58.11250581,3,5,107,24,1,,,,,
0.8036,response_2,longValid,BEETLE,HOSPITAL,,,,,,DRIZZLE,CARDINAL,short,resources/sound/trials/audio_stim_comp69.mp3,60fd0ef6bf5253cae24e3c0d,33,Female,Right handed,2021-07-26_20h49.01.684,MA Experiment 2,2021.1.2,Win32,58.11250581,3,6,108,0,1,,,,,
1.2011,response_2,,MEASLES,OPENING,,,,,,NAVY,RECTANGLE,long,resources/sound/catchTrials/audio_control_human_project06.mp3,60fd0ef6bf5253cae24e3c0d,33,Female,Right handed,2021-07-26_20h49.01.684,MA Experiment 2,2021.1.2,Win32,58.11250581,,,,,,0,15,15,30,1
1.2563,response_1,longValid,NURSERY,SAXOPHONE,,,,,,BRAINSTORM,GREEN NEEDLE,long,resources/sound/trials/audio_stim_original.mp3,60fd0ef6bf5253cae24e3c0d,33,Female,Right handed,2021-07-26_20h49.01.684,MA Experiment 2,2021.1.2,Win32,58.11250581,3,7,109,33,1,,,,,
1.697599999,response_1,longFoil,MEDICINE,HANDKERCHIEF,,,,,,ATHLETE,IVORY,long,resources/sound/trials/audio_stim_comp57.mp3,60fd0ef6bf5253cae24e3c0d,33,Female,Right handed,2021-07-26_20h49.01.684,MA Experiment 2,2021.1.2,Win32,58.11250581,3,8,110,22,1,,,,,
1.9682,response_2,longFoil,LEADER,FACTORY,,,,,,HARDWARE,OVERCOAT,long,resources/sound/trials/audio_stim_human35.mp3,60fd0ef6bf5253cae24e3c0d,33,Female,Right handed,2021-07-26_20h49.01.684,MA Experiment 2,2021.1.2,Win32,58.11250581,3,9,111,25,1,,,,,
1.617400001,response_2,longValid,HURDLE,BEVERAGE,,,,,,PARTY,SANCTUARY,long,resources/sound/trials/audio_stim_human50.mp3,60fd0ef6bf5253cae24e3c0d,33,Female,Right handed,2021-07-26_20h49.01.684,MA Experiment 2,2021.1.2,Win32,58.11250581,3,10,112,31,1,,,,,
1.6064,response_2,,CHIPMUNK,NEIGHBOURHOOD,,,,,,HOBBY,COLONY,long,resources/sound/catchTrials/audio_control_comp_project04.mp3,60fd0ef6bf5253cae24e3c0d,33,Female,Right handed,2021-07-26_20h49.01.684,MA Experiment 2,2021.1.2,Win32,58.11250581,,,,,,0,29,29,18,1
1.404,response_1,shortFoil,EARTHWORM,HEROIN,,,,,,SACRED,GALAXY,short,resources/sound/trials/audio_stim_comp1.mp3,60fd0ef6bf5253cae24e3c0d,33,Female,Right handed,2021-07-26_20h49.01.684,MA Experiment 2,2021.1.2,Win32,58.11250581,3,11,113,7,1,,,,,
2.7418,response_1,shortFoil,VESSEL,FURNITURE,,,,,,WHISTLE,TREASURER,long,resources/sound/trials/audio_stim_comp12.mp3,60fd0ef6bf5253cae24e3c0d,33,Female,Right handed,2021-07-26_20h49.01.684,MA Experiment 2,2021.1.2,Win32,58.11250581,3,12,114,20,1,,,,,
1.5522,response_2,longFoil,DIAL,GORILLA,,,,,,HARDWARE,OVERCOAT,short,resources/sound/trials/audio_stim_human35.mp3,60fd0ef6bf5253cae24e3c0d,33,Female,Right handed,2021-07-26_20h49.01.684,MA Experiment 2,2021.1.2,Win32,58.11250581,3,13,115,8,1,,,,,
1.5929,response_2,longValid,JURY,MESSENGER,,,,,,MARBLE,CUSTOMER,short,resources/sound/trials/audio_stim_comp65.mp3,60fd0ef6bf5253cae24e3c0d,33,Female,Right handed,2021-07-26_20h49.01.684,MA Experiment 2,2021.1.2,Win32,58.11250581,3,14,116,4,1,,,,,
1.6086,response_1,,SCOOTER,CHOCOLATE,,,,,,VIOLET,LUBRICANT,long,resources/sound/catchTrials/audio_control_comp_project07.mp3,60fd0ef6bf5253cae24e3c0d,33,Female,Right handed,2021-07-26_20h49.01.684,MA Experiment 2,2021.1.2,Win32,58.11250581,,,,,,0,21,21,19,1
1.5511,response_1,shortValid,PERSON,HEADQUARTERS,,,,,,WORKER,VISITOR,long,resources/sound/trials/audio_stim_comp17.mp3,60fd0ef6bf5253cae24e3c0d,33,Female,Right handed,2021-07-26_20h49.01.684,MA Experiment 2,2021.1.2,Win32,58.11250581,3,15,117,23,1,,,,,
0.8116,response_1,shortValid,STOCKING,ASBESTOS,,,,,,MINER,EMERALD,short,resources/sound/trials/audio_stim_comp6.mp3,60fd0ef6bf5253cae24e3c0d,33,Female,Right handed,2021-07-26_20h49.01.684,MA Experiment 2,2021.1.2,Win32,58.11250581,3,16,118,1,1,,,,,
1.8775,response_2,longFoil,RABBI,AMBULANCE,,,,,,CONCRETE,ENEMY,short,resources/sound/trials/audio_stim_human67.mp3,60fd0ef6bf5253cae24e3c0d,33,Female,Right handed,2021-07-26_20h49.01.684,MA Experiment 2,2021.1.2,Win32,58.11250581,3,17,119,10,1,,,,,
1.674299999,response_1,longFoil,RUSTY,DISSECTION,,,,,,DRIZZLE,CARDINAL,long,resources/sound/trials/audio_stim_comp69.mp3,60fd0ef6bf5253cae24e3c0d,33,Female,Right handed,2021-07-26_20h49.01.684,MA Experiment 2,2021.1.2,Win32,58.11250581,3,18,120,17,1,,,,,
0.9345,response_1,,TORTURE,CONVENTION,,,,,,JUGGLER,DANDELION,short,resources/sound/catchTrials/audio_control_human_project09.mp3,60fd0ef6bf5253cae24e3c0d,33,Female,Right handed,2021-07-26_20h49.01.684,MA Experiment 2,2021.1.2,Win32,58.11250581,,,,,,0,0,0,15,1
1.2612,response_1,longFoil,BERRY,CIGARETTE,,,,,,RECEIPT,LIMOUSINE,short,resources/sound/trials/audio_stim_comp40.mp3,60fd0ef6bf5253cae24e3c0d,33,Female,Right handed,2021-07-26_20h49.01.684,MA Experiment 2,2021.1.2,Win32,58.11250581,3,19,121,2,1,,,,,
1.104099999,response_2,longValid,KERNEL,ACROBAT,,,,,,MINER,EMERALD,short,resources/sound/trials/audio_stim_human6.mp3,60fd0ef6bf5253cae24e3c0d,33,Female,Right handed,2021-07-26_20h49.01.684,MA Experiment 2,2021.1.2,Win32,58.11250581,3,20,122,13,1,,,,,
1.0818,response_2,shortFoil,VILLAGE,FIREWOOD,,,,,,CONCRETE,ENEMY,long,resources/sound/trials/audio_stim_human67.mp3,60fd0ef6bf5253cae24e3c0d,33,Female,Right handed,2021-07-26_20h49.01.684,MA Experiment 2,2021.1.2,Win32,58.11250581,3,21,123,27,1,,,,,
1.2603,response_2,longFoil,FATHER,HURRICANE,,,,,,RUBBER,PROPERTY,long,resources/sound/trials/audio_stim_human0.mp3,60fd0ef6bf5253cae24e3c0d,33,Female,Right handed,2021-07-26_20h49.01.684,MA Experiment 2,2021.1.2,Win32,58.11250581,3,22,124,29,1,,,,,
1.457,response_2,,HAMMER,MECHANIC,,,,,,IRIS,VIOLIN,long,resources/sound/catchTrials/audio_control_comp_project12.mp3,60fd0ef6bf5253cae24e3c0d,33,Female,Right handed,2021-07-26_20h49.01.684,MA Experiment 2,2021.1.2,Win32,58.11250581,,,,,,0,9,9,20,1
3.0625,response_2,shortFoil,SODA,SPECIALIST,,,,,,DAYLIGHT,MATERIAL,short,resources/sound/trials/audio_stim_human42.mp3,60fd0ef6bf5253cae24e3c0d,33,Female,Right handed,2021-07-26_20h49.01.684,MA Experiment 2,2021.1.2,Win32,58.11250581,3,23,125,9,1,,,,,
2.1754,response_2,shortFoil,GRADUATE,AMMONIA,,,,,,ROBBER,RATTLESNAKE,long,resources/sound/trials/audio_stim_human64.mp3,60fd0ef6bf5253cae24e3c0d,33,Female,Right handed,2021-07-26_20h49.01.684,MA Experiment 2,2021.1.2,Win32,58.11250581,3,24,126,32,1,,,,,
0.6414,response_2,shortFoil,MURAL,POTATO,,,,,,DAYLIGHT,MATERIAL,long,resources/sound/trials/audio_stim_human42.mp3,60fd0ef6bf5253cae24e3c0d,33,Female,Right handed,2021-07-26_20h49.01.684,MA Experiment 2,2021.1.2,Win32,58.11250581,3,25,127,26,1,,,,,
1.783299999,response_2,longValid,DWELLER,GINGERBREAD,,,,,,PAINTER,VEHICLE,long,resources/sound/trials/audio_stim_human47.mp3,60fd0ef6bf5253cae24e3c0d,33,Female,Right handed,2021-07-26_20h49.01.684,MA Experiment 2,2021.1.2,Win32,58.11250581,3,26,128,28,1,,,,,
2.0023,response_2,,CEREAL,CORRIDOR,,,,,,HOBBY,COLONY,long,resources/sound/catchTrials/audio_control_human_project04.mp3,60fd0ef6bf5253cae24e3c0d,33,Female,Right handed,2021-07-26_20h49.01.684,MA Experiment 2,2021.1.2,Win32,58.11250581,,,,,,0,1,1,27,1
1.0128,response_2,longFoil,SINGER,POLICEMAN,,,,,,ATHLETE,IVORY,short,resources/sound/trials/audio_stim_comp57.mp3,60fd0ef6bf5253cae24e3c0d,33,Female,Right handed,2021-07-26_20h49.01.684,MA Experiment 2,2021.1.2,Win32,58.11250581,3,27,129,5,1,,,,,
0.5626,response_2,longValid,PIANO,MOLECULE,,,,,,MINER,EMERALD,long,resources/sound/trials/audio_stim_comp6.mp3,60fd0ef6bf5253cae24e3c0d,33,Female,Right handed,2021-07-26_20h49.01.684,MA Experiment 2,2021.1.2,Win32,58.11250581,3,28,130,18,1,,,,,
1.2819,response_2,shortFoil,MISTRESS,OXYGEN,,,,,,ROBBER,RATTLESNAKE,short,resources/sound/trials/audio_stim_human64.mp3,60fd0ef6bf5253cae24e3c0d,33,Female,Right handed,2021-07-26_20h49.01.684,MA Experiment 2,2021.1.2,Win32,58.11250581,3,29,131,15,1,,,,,
1.827799999,response_2,longValid,DECOY,COMMITTEE,,,,,,PARTY,SANCTUARY,short,resources/sound/trials/audio_stim_human50.mp3,60fd0ef6bf5253cae24e3c0d,33,Female,Right handed,2021-07-26_20h49.01.684,MA Experiment 2,2021.1.2,Win32,58.11250581,3,30,132,14,1,,,,,
1.644700001,response_2,,VALLEY,ICICLE,,,,,,ICY,JITTERBUG,short,resources/sound/catchTrials/audio_control_comp_project08.mp3,60fd0ef6bf5253cae24e3c0d,33,Female,Right handed,2021-07-26_20h49.01.684,MA Experiment 2,2021.1.2,Win32,58.11250581,,,,,,0,23,23,7,1
0.528,response_1,longValid,LIGHTNING,LEMONADE,,,,,,MARBLE,CUSTOMER,long,resources/sound/trials/audio_stim_comp65.mp3,60fd0ef6bf5253cae24e3c0d,33,Female,Right handed,2021-07-26_20h49.01.684,MA Experiment 2,2021.1.2,Win32,58.11250581,3,31,133,21,1,,,,,
1.380099999,response_1,longValid,FERTILE,ABDOMEN,,,,,,WHISTLE,TREASURER,short,resources/sound/trials/audio_stim_comp12.mp3,60fd0ef6bf5253cae24e3c0d,33,Female,Right handed,2021-07-26_20h49.01.684,MA Experiment 2,2021.1.2,Win32,58.11250581,3,32,134,3,1,,,,,
0.1832,response_3,shortValid,TWEEZER,REFEREE,,,,,,PAINTER,VEHICLE,short,resources/sound/trials/audio_stim_human47.mp3,60fd0ef6bf5253cae24e3c0d,33,Female,Right handed,2021-07-26_20h49.01.684,MA Experiment 2,2021.1.2,Win32,58.11250581,3,33,135,11,1,,,,,
