response.time,response,cueTarget,rand_foil_1,rand_foil_2,prac_trials.thisRepN,prac_trials.thisTrialN,prac_trials.thisN,prac_trials.thisIndex,prac_trials.ran,word_1,word_2,cue,file_path,participant,age,gender,handedness,date,expName,psychopyVersion,OS,frameRate,trials.thisRepN,trials.thisTrialN,trials.thisN,trials.thisIndex,trials.ran,catchTrials.thisRepN,catchTrials.thisTrialN,catchTrials.thisN,catchTrials.thisIndex,catchTrials.ran
1.7841,response_2,longFoil,MEDICINE,TANGERINE,0,0,0,9,1,GRUMPY,LABYRINTH,long,resources/sound/prac_trials/practice_cue_human9.mp3,60fd23ef6a559a87f905f619,28,Female,Right handed,2021-07-26_20h47.37.943,MA Experiment 2,2021.1.2,Win32,60.06727535,,,,,,,,,,
2.0913,response_2,longValid,WINDOW,CANDLELIGHT,0,1,1,1,1,CABLE,REPUBLIC,short,resources/sound/prac_trials/practice_cue_human1.mp3,60fd23ef6a559a87f905f619,28,Female,Right handed,2021-07-26_20h47.37.943,MA Experiment 2,2021.1.2,Win32,60.06727535,,,,,,,,,,
1.3798,response_2,longValid,EARTHWORM,MICROSCOPE,0,2,2,0,1,AARDVARK,FALLACY,short,resources/sound/prac_trials/practice_cue0.mp3,60fd23ef6a559a87f905f619,28,Female,Right handed,2021-07-26_20h47.37.943,MA Experiment 2,2021.1.2,Win32,60.06727535,,,,,,,,,,
1.1261,response_2,longFoil,WIRE,GINGERBREAD,0,3,3,8,1,DAGGER,EMPHASIS,long,resources/sound/prac_trials/practice_cue8.mp3,60fd23ef6a559a87f905f619,28,Female,Right handed,2021-07-26_20h47.37.943,MA Experiment 2,2021.1.2,Win32,60.06727535,,,,,,,,,,
1.6436,response_2,longFoil,BUTTER,CARNATION,0,4,4,7,1,BUCKLE,WALLABY,long,resources/sound/prac_trials/practice_cue_human7.mp3,60fd23ef6a559a87f905f619,28,Female,Right handed,2021-07-26_20h47.37.943,MA Experiment 2,2021.1.2,Win32,60.06727535,,,,,,,,,,
2.0595,response_1,longValid,BERRY,NEIGHBOURHOOD,0,5,5,2,1,RECENT,TOBACCO,short,resources/sound/prac_trials/practice_cue2.mp3,60fd23ef6a559a87f905f619,28,Female,Right handed,2021-07-26_20h47.37.943,MA Experiment 2,2021.1.2,Win32,60.06727535,,,,,,,,,,
2.7765,response_1,shortFoil,TEMPLE,CATHEDRAL,0,6,6,11,1,KETCHUP,GONDOLA,long,resources/sound/prac_trials/practice_cue_human11.mp3,60fd23ef6a559a87f905f619,28,Female,Right handed,2021-07-26_20h47.37.943,MA Experiment 2,2021.1.2,Win32,60.06727535,,,,,,,,,,
1.225,response_2,shortFoil,DUEL,ALPHABET,0,7,7,4,1,FIZZY,ELECTRIC,short,resources/sound/prac_trials/practice_cue4.mp3,60fd23ef6a559a87f905f619,28,Female,Right handed,2021-07-26_20h47.37.943,MA Experiment 2,2021.1.2,Win32,60.06727535,,,,,,,,,,
2.3913,response_2,longFoil,SHOULDER,MOSQUITO,0,8,8,3,1,EAGER,QUALIFY,short,resources/sound/prac_trials/practice_cue_human3.mp3,60fd23ef6a559a87f905f619,28,Female,Right handed,2021-07-26_20h47.37.943,MA Experiment 2,2021.1.2,Win32,60.06727535,,,,,,,,,,
1.2426,response_1,longFoil,POLO,CHOCOLATE,0,9,9,10,1,SAFFRON,JAVELIN,long,resources/sound/prac_trials/practice_cue10.mp3,60fd23ef6a559a87f905f619,28,Female,Right handed,2021-07-26_20h47.37.943,MA Experiment 2,2021.1.2,Win32,60.06727535,,,,,,,,,,
1.7741,response_2,shortValid,CEREAL,CROCODILE,0,10,10,6,1,VACANT,SALVATION,long,resources/sound/prac_trials/practice_cue6.mp3,60fd23ef6a559a87f905f619,28,Female,Right handed,2021-07-26_20h47.37.943,MA Experiment 2,2021.1.2,Win32,60.06727535,,,,,,,,,,
0.8493,response_1,shortValid,VALLEY,EMULSION,0,11,11,5,1,NONSENSE,OASIS,short,resources/sound/prac_trials/practice_cue_human5.mp3,60fd23ef6a559a87f905f619,28,Female,Right handed,2021-07-26_20h47.37.943,MA Experiment 2,2021.1.2,Win32,60.06727535,,,,,,,,,,
1.6739,response_1,shortValid,SULPHUR,FURNITURE,,,,,,DRIZZLE,CARDINAL,long,resources/sound/trials/audio_stim_comp69.mp3,60fd23ef6a559a87f905f619,28,Female,Right handed,2021-07-26_20h47.37.943,MA Experiment 2,2021.1.2,Win32,60.06727535,0,0,0,17,1,,,,,
2.0259,response_1,shortFoil,DECOY,FAMILY,,,,,,RECEIPT,LIMOUSINE,long,resources/sound/trials/audio_stim_comp40.mp3,60fd23ef6a559a87f905f619,28,Female,Right handed,2021-07-26_20h47.37.943,MA Experiment 2,2021.1.2,Win32,60.06727535,0,1,1,19,1,,,,,
,,shortFoil,TORTURE,INDUSTRY,,,,,,CONCRETE,ENEMY,short,resources/sound/trials/audio_stim_human67.mp3,60fd23ef6a559a87f905f619,28,Female,Right handed,2021-07-26_20h47.37.943,MA Experiment 2,2021.1.2,Win32,60.06727535,0,2,2,10,1,,,,,
1.2936,response_2,,INVOICE,SETTLEMENT,,,,,,SPINACH,APRICOT,short,resources/sound/catchTrials/audio_control_comp_project18.mp3,60fd23ef6a559a87f905f619,28,Female,Right handed,2021-07-26_20h47.37.943,MA Experiment 2,2021.1.2,Win32,60.06727535,,,,,,0,16,16,5,1
1.5424,response_1,shortFoil,OLIVE,AVENUE,,,,,,MARBLE,CUSTOMER,short,resources/sound/trials/audio_stim_comp65.mp3,60fd23ef6a559a87f905f619,28,Female,Right handed,2021-07-26_20h47.37.943,MA Experiment 2,2021.1.2,Win32,60.06727535,0,3,3,4,1,,,,,
1.3644,response_2,shortFoil,GRADUATE,TEMPERATURE,,,,,,MINER,EMERALD,short,resources/sound/trials/audio_stim_comp6.mp3,60fd23ef6a559a87f905f619,28,Female,Right handed,2021-07-26_20h47.37.943,MA Experiment 2,2021.1.2,Win32,60.06727535,0,4,4,1,1,,,,,
1.3468,response_1,shortValid,DOORWAY,BEVERAGE,,,,,,ATHLETE,IVORY,short,resources/sound/trials/audio_stim_comp57.mp3,60fd23ef6a559a87f905f619,28,Female,Right handed,2021-07-26_20h47.37.943,MA Experiment 2,2021.1.2,Win32,60.06727535,0,5,5,5,1,,,,,
2.127,response_2,shortValid,NOVEL,GRASSHOPPER,,,,,,BRAINSTORM,GREEN NEEDLE,short,resources/sound/trials/audio_stim_original.mp3,60fd23ef6a559a87f905f619,28,Female,Right handed,2021-07-26_20h47.37.943,MA Experiment 2,2021.1.2,Win32,60.06727535,0,6,6,16,1,,,,,
1.176,response_2,,HAMMER,POLIO,,,,,,NAVY,RECTANGLE,long,resources/sound/catchTrials/audio_control_comp_project06.mp3,60fd23ef6a559a87f905f619,28,Female,Right handed,2021-07-26_20h47.37.943,MA Experiment 2,2021.1.2,Win32,60.06727535,,,,,,0,0,0,22,1
1.4752,response_2,longValid,DWELLER,CLARINET,,,,,,WORKER,VISITOR,long,resources/sound/trials/audio_stim_comp17.mp3,60fd23ef6a559a87f905f619,28,Female,Right handed,2021-07-26_20h47.37.943,MA Experiment 2,2021.1.2,Win32,60.06727535,0,7,7,23,1,,,,,
1.4249,response_2,shortValid,SHEEPSKIN,SAXOPHONE,,,,,,HARDWARE,OVERCOAT,short,resources/sound/trials/audio_stim_human35.mp3,60fd23ef6a559a87f905f619,28,Female,Right handed,2021-07-26_20h47.37.943,MA Experiment 2,2021.1.2,Win32,60.06727535,0,8,8,8,1,,,,,
1.7249,response_2,longValid,STATION,CAMERA,,,,,,BRAINSTORM,GREEN NEEDLE,long,resources/sound/trials/audio_stim_original.mp3,60fd23ef6a559a87f905f619,28,Female,Right handed,2021-07-26_20h47.37.943,MA Experiment 2,2021.1.2,Win32,60.06727535,0,9,9,33,1,,,,,
1.9088,response_1,shortFoil,SEGMENT,HURRICANE,,,,,,PARTY,SANCTUARY,short,resources/sound/trials/audio_stim_human50.mp3,60fd23ef6a559a87f905f619,28,Female,Right handed,2021-07-26_20h47.37.943,MA Experiment 2,2021.1.2,Win32,60.06727535,0,10,10,14,1,,,,,
1.9088,response_1,,PERSON,BUTTERFLY,,,,,,POISON,REVOLVER,short,resources/sound/catchTrials/audio_control_human_project01.mp3,60fd23ef6a559a87f905f619,28,Female,Right handed,2021-07-26_20h47.37.943,MA Experiment 2,2021.1.2,Win32,60.06727535,,,,,,0,1,1,9,1
1.5585,response_1,shortFoil,BURNER,ABDOMEN,,,,,,MARBLE,CUSTOMER,long,resources/sound/trials/audio_stim_comp65.mp3,60fd23ef6a559a87f905f619,28,Female,Right handed,2021-07-26_20h47.37.943,MA Experiment 2,2021.1.2,Win32,60.06727535,0,11,11,21,1,,,,,
1.3591,response_1,longFoil,KENNEL,CABINET,,,,,,HARDWARE,OVERCOAT,long,resources/sound/trials/audio_stim_human35.mp3,60fd23ef6a559a87f905f619,28,Female,Right handed,2021-07-26_20h47.37.943,MA Experiment 2,2021.1.2,Win32,60.06727535,0,12,12,25,1,,,,,
1.726,response_1,longValid,HAMSTER,ATTENDANT,,,,,,WHISTLE,TREASURER,short,resources/sound/trials/audio_stim_comp12.mp3,60fd23ef6a559a87f905f619,28,Female,Right handed,2021-07-26_20h47.37.943,MA Experiment 2,2021.1.2,Win32,60.06727535,0,13,13,3,1,,,,,
1.1118,response_1,longFoil,NURSERY,HONEYMOON,,,,,,MINER,EMERALD,short,resources/sound/trials/audio_stim_human6.mp3,60fd23ef6a559a87f905f619,28,Female,Right handed,2021-07-26_20h47.37.943,MA Experiment 2,2021.1.2,Win32,60.06727535,0,14,14,13,1,,,,,
1.599,response_2,,MOONLIGHT,STRAWBERRY,,,,,,CORNER,ENGINEER,long,resources/sound/catchTrials/audio_control_human_project14.mp3,60fd23ef6a559a87f905f619,28,Female,Right handed,2021-07-26_20h47.37.943,MA Experiment 2,2021.1.2,Win32,60.06727535,,,,,,0,14,14,26,1
1.972,response_1,longValid,CHIPMUNK,INTERVIEW,,,,,,DAYLIGHT,MATERIAL,short,resources/sound/trials/audio_stim_human42.mp3,60fd23ef6a559a87f905f619,28,Female,Right handed,2021-07-26_20h47.37.943,MA Experiment 2,2021.1.2,Win32,60.06727535,0,15,15,9,1,,,,,
1.2313,response_1,longFoil,MISTRESS,POLICEMAN,,,,,,ROBBER,RATTLESNAKE,short,resources/sound/trials/audio_stim_human64.mp3,60fd23ef6a559a87f905f619,28,Female,Right handed,2021-07-26_20h47.37.943,MA Experiment 2,2021.1.2,Win32,60.06727535,0,16,16,15,1,,,,,
1.311,response_1,shortFoil,EVENING,POTATO,,,,,,ROBBER,RATTLESNAKE,long,resources/sound/trials/audio_stim_human64.mp3,60fd23ef6a559a87f905f619,28,Female,Right handed,2021-07-26_20h47.37.943,MA Experiment 2,2021.1.2,Win32,60.06727535,0,17,17,32,1,,,,,
1.6767,response_1,longFoil,NAPKIN,HOSPITAL,,,,,,WHISTLE,TREASURER,long,resources/sound/trials/audio_stim_comp12.mp3,60fd23ef6a559a87f905f619,28,Female,Right handed,2021-07-26_20h47.37.943,MA Experiment 2,2021.1.2,Win32,60.06727535,0,18,18,20,1,,,,,
1.1098,response_2,,KERNEL,ENAMEL,,,,,,NAVY,RECTANGLE,short,resources/sound/catchTrials/audio_control_comp_project06.mp3,60fd23ef6a559a87f905f619,28,Female,Right handed,2021-07-26_20h47.37.943,MA Experiment 2,2021.1.2,Win32,60.06727535,,,,,,0,5,5,6,1
1.432,response_1,longFoil,VESSEL,ACROBAT,,,,,,DRIZZLE,CARDINAL,short,resources/sound/trials/audio_stim_comp69.mp3,60fd23ef6a559a87f905f619,28,Female,Right handed,2021-07-26_20h47.37.943,MA Experiment 2,2021.1.2,Win32,60.06727535,0,19,19,0,1,,,,,
1.7589,response_1,longFoil,HURDLE,FIREWOOD,,,,,,PAINTER,VEHICLE,short,resources/sound/trials/audio_stim_human47.mp3,60fd23ef6a559a87f905f619,28,Female,Right handed,2021-07-26_20h47.37.943,MA Experiment 2,2021.1.2,Win32,60.06727535,0,20,20,11,1,,,,,
1.3257,response_1,shortFoil,SCOOTER,HEROIN,,,,,,ATHLETE,IVORY,long,resources/sound/trials/audio_stim_comp57.mp3,60fd23ef6a559a87f905f619,28,Female,Right handed,2021-07-26_20h47.37.943,MA Experiment 2,2021.1.2,Win32,60.06727535,0,21,21,22,1,,,,,
1.7293,response_1,shortFoil,SADDLE,MINISTER,,,,,,PARTY,SANCTUARY,long,resources/sound/trials/audio_stim_human50.mp3,60fd23ef6a559a87f905f619,28,Female,Right handed,2021-07-26_20h47.37.943,MA Experiment 2,2021.1.2,Win32,60.06727535,0,22,22,31,1,,,,,
1.1812,response_2,,FAIRY,PHYSICIAN,,,,,,ICY,JITTERBUG,short,resources/sound/catchTrials/audio_control_comp_project08.mp3,60fd23ef6a559a87f905f619,28,Female,Right handed,2021-07-26_20h47.37.943,MA Experiment 2,2021.1.2,Win32,60.06727535,,,,,,0,17,17,7,1
0.8919,response_1,shortValid,CANTEEN,ATHLETICS,,,,,,MINER,EMERALD,long,resources/sound/trials/audio_stim_comp6.mp3,60fd23ef6a559a87f905f619,28,Female,Right handed,2021-07-26_20h47.37.943,MA Experiment 2,2021.1.2,Win32,60.06727535,0,23,23,18,1,,,,,
1.6599,response_2,longValid,DIAL,PROJECTOR,,,,,,SACRED,GALAXY,long,resources/sound/trials/audio_stim_comp1.mp3,60fd23ef6a559a87f905f619,28,Female,Right handed,2021-07-26_20h47.37.943,MA Experiment 2,2021.1.2,Win32,60.06727535,0,24,24,24,1,,,,,
1.1592,response_1,shortValid,LEADER,ORNAMENT,,,,,,SACRED,GALAXY,short,resources/sound/trials/audio_stim_comp1.mp3,60fd23ef6a559a87f905f619,28,Female,Right handed,2021-07-26_20h47.37.943,MA Experiment 2,2021.1.2,Win32,60.06727535,0,25,25,7,1,,,,,
1.6992,response_1,longValid,RUSTY,PROFESSOR,,,,,,DAYLIGHT,MATERIAL,long,resources/sound/trials/audio_stim_human42.mp3,60fd23ef6a559a87f905f619,28,Female,Right handed,2021-07-26_20h47.37.943,MA Experiment 2,2021.1.2,Win32,60.06727535,0,26,26,26,1,,,,,
1.2364,response_2,,ANCHOR,ENVELOPE,,,,,,JOURNAL,ROBBERY,short,resources/sound/catchTrials/audio_control_human_project02.mp3,60fd23ef6a559a87f905f619,28,Female,Right handed,2021-07-26_20h47.37.943,MA Experiment 2,2021.1.2,Win32,60.06727535,,,,,,0,13,13,13,1
1.6313,response_1,longValid,NEIGHBOUR,OXYGEN,,,,,,PAINTER,VEHICLE,long,resources/sound/trials/audio_stim_human47.mp3,60fd23ef6a559a87f905f619,28,Female,Right handed,2021-07-26_20h47.37.943,MA Experiment 2,2021.1.2,Win32,60.06727535,0,27,27,28,1,,,,,
1.2644,response_1,longFoil,MURDER,CITIZEN,,,,,,RUBBER,PROPERTY,short,resources/sound/trials/audio_stim_human0.mp3,60fd23ef6a559a87f905f619,28,Female,Right handed,2021-07-26_20h47.37.943,MA Experiment 2,2021.1.2,Win32,60.06727535,0,28,28,12,1,,,,,
1.4684,response_1,longFoil,PRINCESS,MERCURY,,,,,,RECEIPT,LIMOUSINE,short,resources/sound/trials/audio_stim_comp40.mp3,60fd23ef6a559a87f905f619,28,Female,Right handed,2021-07-26_20h47.37.943,MA Experiment 2,2021.1.2,Win32,60.06727535,0,29,29,2,1,,,,,
2.297,response_1,shortFoil,DIVING,GALLERY,,,,,,CONCRETE,ENEMY,long,resources/sound/trials/audio_stim_human67.mp3,60fd23ef6a559a87f905f619,28,Female,Right handed,2021-07-26_20h47.37.943,MA Experiment 2,2021.1.2,Win32,60.06727535,0,30,30,27,1,,,,,
1.214,response_2,,CABIN,PHOTOGRAPH,,,,,,HOBBY,COLONY,long,resources/sound/catchTrials/audio_control_comp_project04.mp3,60fd23ef6a559a87f905f619,28,Female,Right handed,2021-07-26_20h47.37.943,MA Experiment 2,2021.1.2,Win32,60.06727535,,,,,,0,29,29,18,1
1.3034,response_2,longFoil,SODA,REFEREE,,,,,,RUBBER,PROPERTY,long,resources/sound/trials/audio_stim_human0.mp3,60fd23ef6a559a87f905f619,28,Female,Right handed,2021-07-26_20h47.37.943,MA Experiment 2,2021.1.2,Win32,60.06727535,0,31,31,29,1,,,,,
1.4054,response_1,shortValid,RABBI,INJURY,,,,,,MINER,EMERALD,long,resources/sound/trials/audio_stim_human6.mp3,60fd23ef6a559a87f905f619,28,Female,Right handed,2021-07-26_20h47.37.943,MA Experiment 2,2021.1.2,Win32,60.06727535,0,32,32,30,1,,,,,
1.1044,response_2,shortFoil,BISHOP,INFECTION,,,,,,WORKER,VISITOR,short,resources/sound/trials/audio_stim_comp17.mp3,60fd23ef6a559a87f905f619,28,Female,Right handed,2021-07-26_20h47.37.943,MA Experiment 2,2021.1.2,Win32,60.06727535,0,33,33,6,1,,,,,
1.3111,response_1,longFoil,KETTLE,CORRIDOR,,,,,,CONCRETE,ENEMY,short,resources/sound/trials/audio_stim_human67.mp3,60fd23ef6a559a87f905f619,28,Female,Right handed,2021-07-26_20h47.37.943,MA Experiment 2,2021.1.2,Win32,60.06727535,1,0,34,10,1,,,,,
1.176,response_1,longValid,OFFICE,HEADQUARTERS,,,,,,ATHLETE,IVORY,short,resources/sound/trials/audio_stim_comp57.mp3,60fd23ef6a559a87f905f619,28,Female,Right handed,2021-07-26_20h47.37.943,MA Experiment 2,2021.1.2,Win32,60.06727535,1,1,35,5,1,,,,,
1.4645,response_1,shortValid,HARBOUR,GORILLA,,,,,,PARTY,SANCTUARY,short,resources/sound/trials/audio_stim_human50.mp3,60fd23ef6a559a87f905f619,28,Female,Right handed,2021-07-26_20h47.37.943,MA Experiment 2,2021.1.2,Win32,60.06727535,1,2,36,14,1,,,,,
0.8641,response_2,,TUMBLE,COMMITTEE,,,,,,NAVY,RECTANGLE,long,resources/sound/catchTrials/audio_control_human_project06.mp3,60fd23ef6a559a87f905f619,28,Female,Right handed,2021-07-26_20h47.37.943,MA Experiment 2,2021.1.2,Win32,60.06727535,,,,,,0,4,4,30,1
1.3926,response_1,shortValid,MORNING,MEDICINE,,,,,,PAINTER,VEHICLE,long,resources/sound/trials/audio_stim_human47.mp3,60fd23ef6a559a87f905f619,28,Female,Right handed,2021-07-26_20h47.37.943,MA Experiment 2,2021.1.2,Win32,60.06727535,1,3,37,28,1,,,,,
1.6963,response_2,longValid,MEASLES,GYMNASTICS,,,,,,SACRED,GALAXY,short,resources/sound/trials/audio_stim_comp1.mp3,60fd23ef6a559a87f905f619,28,Female,Right handed,2021-07-26_20h47.37.943,MA Experiment 2,2021.1.2,Win32,60.06727535,1,4,38,7,1,,,,,
1.3228,response_2,longFoil,SOFA,AMMONIA,,,,,,DAYLIGHT,MATERIAL,long,resources/sound/trials/audio_stim_human42.mp3,60fd23ef6a559a87f905f619,28,Female,Right handed,2021-07-26_20h47.37.943,MA Experiment 2,2021.1.2,Win32,60.06727535,1,5,39,26,1,,,,,
0.9096,response_2,longValid,PICTURE,MOLECULE,,,,,,RECEIPT,LIMOUSINE,short,resources/sound/trials/audio_stim_comp40.mp3,60fd23ef6a559a87f905f619,28,Female,Right handed,2021-07-26_20h47.37.943,MA Experiment 2,2021.1.2,Win32,60.06727535,1,6,40,2,1,,,,,
1.991,response_1,,NECKLACE,UMBRELLA,,,,,,VIOLET,LUBRICANT,long,resources/sound/catchTrials/audio_control_comp_project07.mp3,60fd23ef6a559a87f905f619,28,Female,Right handed,2021-07-26_20h47.37.943,MA Experiment 2,2021.1.2,Win32,60.06727535,,,,,,0,8,8,19,1
1.7266,response_1,shortValid,FATHER,OPENING,,,,,,WHISTLE,TREASURER,short,resources/sound/trials/audio_stim_comp12.mp3,60fd23ef6a559a87f905f619,28,Female,Right handed,2021-07-26_20h47.37.943,MA Experiment 2,2021.1.2,Win32,60.06727535,1,7,41,3,1,,,,,
1.2763,response_1,shortValid,LOBSTER,CAPITAL,,,,,,MARBLE,CUSTOMER,short,resources/sound/trials/audio_stim_comp65.mp3,60fd23ef6a559a87f905f619,28,Female,Right handed,2021-07-26_20h47.37.943,MA Experiment 2,2021.1.2,Win32,60.06727535,1,8,42,4,1,,,,,
1.726,response_2,shortFoil,UNCLE,NEWSPAPER,,,,,,BRAINSTORM,GREEN NEEDLE,short,resources/sound/trials/audio_stim_original.mp3,60fd23ef6a559a87f905f619,28,Female,Right handed,2021-07-26_20h47.37.943,MA Experiment 2,2021.1.2,Win32,60.06727535,1,9,43,16,1,,,,,
1.7751,response_2,longFoil,PATIENT,JANITOR,,,,,,RECEIPT,LIMOUSINE,long,resources/sound/trials/audio_stim_comp40.mp3,60fd23ef6a559a87f905f619,28,Female,Right handed,2021-07-26_20h47.37.943,MA Experiment 2,2021.1.2,Win32,60.06727535,1,10,44,19,1,,,,,
1.2041,response_2,,LIGHTNING,FACTORY,,,,,,CORNER,ENGINEER,short,resources/sound/catchTrials/audio_control_human_project14.mp3,60fd23ef6a559a87f905f619,28,Female,Right handed,2021-07-26_20h47.37.943,MA Experiment 2,2021.1.2,Win32,60.06727535,,,,,,0,31,31,10,1
1.0598,response_1,shortFoil,CRYSTAL,INSTITUTE,,,,,,MINER,EMERALD,long,resources/sound/trials/audio_stim_comp6.mp3,60fd23ef6a559a87f905f619,28,Female,Right handed,2021-07-26_20h47.37.943,MA Experiment 2,2021.1.2,Win32,60.06727535,1,11,45,18,1,,,,,
1.431,response_1,shortValid,NATIVE,LEMONADE,,,,,,DRIZZLE,CARDINAL,short,resources/sound/trials/audio_stim_comp69.mp3,60fd23ef6a559a87f905f619,28,Female,Right handed,2021-07-26_20h47.37.943,MA Experiment 2,2021.1.2,Win32,60.06727535,1,12,46,0,1,,,,,
1.5433,response_2,longFoil,SINGER,PROPELLER,,,,,,WORKER,VISITOR,long,resources/sound/trials/audio_stim_comp17.mp3,60fd23ef6a559a87f905f619,28,Female,Right handed,2021-07-26_20h47.37.943,MA Experiment 2,2021.1.2,Win32,60.06727535,1,13,47,23,1,,,,,
1.4813,response_1,shortValid,TWEEZER,MESSENGER,,,,,,PARTY,SANCTUARY,long,resources/sound/trials/audio_stim_human50.mp3,60fd23ef6a559a87f905f619,28,Female,Right handed,2021-07-26_20h47.37.943,MA Experiment 2,2021.1.2,Win32,60.06727535,1,14,48,31,1,,,,,
1.5978,response_2,,PIPING,INSTRUMENT,,,,,,ICY,JITTERBUG,long,resources/sound/catchTrials/audio_control_comp_project08.mp3,60fd23ef6a559a87f905f619,28,Female,Right handed,2021-07-26_20h47.37.943,MA Experiment 2,2021.1.2,Win32,60.06727535,,,,,,0,23,23,23,1
1.7143,response_1,longFoil,FOREARM,RETAILER,,,,,,DRIZZLE,CARDINAL,long,resources/sound/trials/audio_stim_comp69.mp3,60fd23ef6a559a87f905f619,28,Female,Right handed,2021-07-26_20h47.37.943,MA Experiment 2,2021.1.2,Win32,60.06727535,1,15,49,17,1,,,,,
1.2099,response_2,shortFoil,JURY,VINEGAR,,,,,,DAYLIGHT,MATERIAL,short,resources/sound/trials/audio_stim_human42.mp3,60fd23ef6a559a87f905f619,28,Female,Right handed,2021-07-26_20h47.37.943,MA Experiment 2,2021.1.2,Win32,60.06727535,1,16,50,9,1,,,,,
1.55,response_2,shortValid,PIANO,DIAMOND,,,,,,HARDWARE,OVERCOAT,long,resources/sound/trials/audio_stim_human35.mp3,60fd23ef6a559a87f905f619,28,Female,Right handed,2021-07-26_20h47.37.943,MA Experiment 2,2021.1.2,Win32,60.06727535,1,17,51,25,1,,,,,
1.1976,response_2,shortFoil,WAFER,ASBESTOS,,,,,,MINER,EMERALD,short,resources/sound/trials/audio_stim_human6.mp3,60fd23ef6a559a87f905f619,28,Female,Right handed,2021-07-26_20h47.37.943,MA Experiment 2,2021.1.2,Win32,60.06727535,1,18,52,13,1,,,,,
0.9627,response_2,,MUSCLE,INSTRUCTOR,,,,,,IRIS,VIOLIN,long,resources/sound/catchTrials/audio_control_comp_project12.mp3,60fd23ef6a559a87f905f619,28,Female,Right handed,2021-07-26_20h47.37.943,MA Experiment 2,2021.1.2,Win32,60.06727535,,,,,,0,19,19,20,1
1.6179,response_1,shortValid,LIQUID,CIGARETTE,,,,,,PAINTER,VEHICLE,short,resources/sound/trials/audio_stim_human47.mp3,60fd23ef6a559a87f905f619,28,Female,Right handed,2021-07-26_20h47.37.943,MA Experiment 2,2021.1.2,Win32,60.06727535,1,19,53,11,1,,,,,
1.8766,response_1,longFoil,VAPOUR,ALCOHOL,,,,,,HARDWARE,OVERCOAT,short,resources/sound/trials/audio_stim_human35.mp3,60fd23ef6a559a87f905f619,28,Female,Right handed,2021-07-26_20h47.37.943,MA Experiment 2,2021.1.2,Win32,60.06727535,1,20,54,8,1,,,,,
1.6599,response_1,longValid,FERTILE,APPLIANCE,,,,,,MARBLE,CUSTOMER,long,resources/sound/trials/audio_stim_comp65.mp3,60fd23ef6a559a87f905f619,28,Female,Right handed,2021-07-26_20h47.37.943,MA Experiment 2,2021.1.2,Win32,60.06727535,1,21,55,21,1,,,,,
1.4098,response_2,shortValid,TRAITOR,ADMIRAL,,,,,,ROBBER,RATTLESNAKE,long,resources/sound/trials/audio_stim_human64.mp3,60fd23ef6a559a87f905f619,28,Female,Right handed,2021-07-26_20h47.37.943,MA Experiment 2,2021.1.2,Win32,60.06727535,1,22,56,32,1,,,,,
1.4824,response_1,,FEVER,DISSECTION,,,,,,VIOLET,LUBRICANT,short,resources/sound/catchTrials/audio_control_comp_project07.mp3,60fd23ef6a559a87f905f619,28,Female,Right handed,2021-07-26_20h47.37.943,MA Experiment 2,2021.1.2,Win32,60.06727535,,,,,,0,28,28,3,1
1.5764,response_1,longValid,DANCER,HANDKERCHIEF,,,,,,RUBBER,PROPERTY,long,resources/sound/trials/audio_stim_human0.mp3,60fd23ef6a559a87f905f619,28,Female,Right handed,2021-07-26_20h47.37.943,MA Experiment 2,2021.1.2,Win32,60.06727535,1,23,57,29,1,,,,,
0.9226,response_2,longValid,INCOME,ANTIQUE,,,,,,ROBBER,RATTLESNAKE,short,resources/sound/trials/audio_stim_human64.mp3,60fd23ef6a559a87f905f619,28,Female,Right handed,2021-07-26_20h47.37.943,MA Experiment 2,2021.1.2,Win32,60.06727535,1,24,58,15,1,,,,,
2.8149,response_1,shortValid,ACRE,MINERAL,,,,,,CONCRETE,ENEMY,long,resources/sound/trials/audio_stim_human67.mp3,60fd23ef6a559a87f905f619,28,Female,Right handed,2021-07-26_20h47.37.943,MA Experiment 2,2021.1.2,Win32,60.06727535,1,25,59,27,1,,,,,
1.6045,response_2,longFoil,WALRUS,CINNAMON,,,,,,BRAINSTORM,GREEN NEEDLE,long,resources/sound/trials/audio_stim_original.mp3,60fd23ef6a559a87f905f619,28,Female,Right handed,2021-07-26_20h47.37.943,MA Experiment 2,2021.1.2,Win32,60.06727535,1,26,60,33,1,,,,,
1.5594,response_2,,CAPTAIN,AMBULANCE,,,,,,NAVY,RECTANGLE,short,resources/sound/catchTrials/audio_control_human_project06.mp3,60fd23ef6a559a87f905f619,28,Female,Right handed,2021-07-26_20h47.37.943,MA Experiment 2,2021.1.2,Win32,60.06727535,,,,,,0,30,30,14,1
1.4316,response_2,shortFoil,MURAL,GOVERNMENT,,,,,,SACRED,GALAXY,long,resources/sound/trials/audio_stim_comp1.mp3,60fd23ef6a559a87f905f619,28,Female,Right handed,2021-07-26_20h47.37.943,MA Experiment 2,2021.1.2,Win32,60.06727535,1,27,61,24,1,,,,,
1.1827,response_1,longFoil,WRITING,LECTURER,,,,,,ATHLETE,IVORY,long,resources/sound/trials/audio_stim_comp57.mp3,60fd23ef6a559a87f905f619,28,Female,Right handed,2021-07-26_20h47.37.943,MA Experiment 2,2021.1.2,Win32,60.06727535,1,28,62,22,1,,,,,
1.5765,response_2,longFoil,PODIUM,FISHERMAN,,,,,,MINER,EMERALD,short,resources/sound/trials/audio_stim_comp6.mp3,60fd23ef6a559a87f905f619,28,Female,Right handed,2021-07-26_20h47.37.943,MA Experiment 2,2021.1.2,Win32,60.06727535,1,29,63,1,1,,,,,
1.4589,response_1,shortFoil,STOCKING,MONUMENT,,,,,,WHISTLE,TREASURER,long,resources/sound/trials/audio_stim_comp12.mp3,60fd23ef6a559a87f905f619,28,Female,Right handed,2021-07-26_20h47.37.943,MA Experiment 2,2021.1.2,Win32,60.06727535,1,30,64,20,1,,,,,
1.1153,response_2,,BEETLE,ICICLE,,,,,,SPINACH,APRICOT,long,resources/sound/catchTrials/audio_control_comp_project18.mp3,60fd23ef6a559a87f905f619,28,Female,Right handed,2021-07-26_20h47.37.943,MA Experiment 2,2021.1.2,Win32,60.06727535,,,,,,0,6,6,21,1
1.4443,response_2,shortValid,CURFEW,SPECIALIST,,,,,,RUBBER,PROPERTY,short,resources/sound/trials/audio_stim_human0.mp3,60fd23ef6a559a87f905f619,28,Female,Right handed,2021-07-26_20h47.37.943,MA Experiment 2,2021.1.2,Win32,60.06727535,1,31,65,12,1,,,,,
1.8938,response_1,shortFoil,CIGAR,MECHANIC,,,,,,MINER,EMERALD,long,resources/sound/trials/audio_stim_human6.mp3,60fd23ef6a559a87f905f619,28,Female,Right handed,2021-07-26_20h47.37.943,MA Experiment 2,2021.1.2,Win32,60.06727535,1,32,66,30,1,,,,,
1.3975,response_1,longFoil,GIRDLE,CONVENTION,,,,,,WORKER,VISITOR,short,resources/sound/trials/audio_stim_comp17.mp3,60fd23ef6a559a87f905f619,28,Female,Right handed,2021-07-26_20h47.37.943,MA Experiment 2,2021.1.2,Win32,60.06727535,1,33,67,6,1,,,,,
1.7267,response_2,longFoil,VILLAGE,DESTROYER,,,,,,PARTY,SANCTUARY,short,resources/sound/trials/audio_stim_human50.mp3,60fd23ef6a559a87f905f619,28,Female,Right handed,2021-07-26_20h47.37.943,MA Experiment 2,2021.1.2,Win32,60.06727535,2,0,68,14,1,,,,,
1.4268,response_1,longFoil,ACRE,CITIZEN,,,,,,MARBLE,CUSTOMER,short,resources/sound/trials/audio_stim_comp65.mp3,60fd23ef6a559a87f905f619,28,Female,Right handed,2021-07-26_20h47.37.943,MA Experiment 2,2021.1.2,Win32,60.06727535,2,1,69,4,1,,,,,
1.6444,response_2,longValid,SULPHUR,SETTLEMENT,,,,,,ROBBER,RATTLESNAKE,long,resources/sound/trials/audio_stim_human64.mp3,60fd23ef6a559a87f905f619,28,Female,Right handed,2021-07-26_20h47.37.943,MA Experiment 2,2021.1.2,Win32,60.06727535,2,2,70,32,1,,,,,
1.1961,response_1,,MEASLES,INSTRUCTOR,,,,,,JUGGLER,DANDELION,long,resources/sound/catchTrials/audio_control_human_project09.mp3,60fd23ef6a559a87f905f619,28,Female,Right handed,2021-07-26_20h47.37.943,MA Experiment 2,2021.1.2,Win32,60.06727535,,,,,,0,25,25,31,1
1.4782,response_1,shortValid,BEETLE,CAMERA,,,,,,MARBLE,CUSTOMER,long,resources/sound/trials/audio_stim_comp65.mp3,60fd23ef6a559a87f905f619,28,Female,Right handed,2021-07-26_20h47.37.943,MA Experiment 2,2021.1.2,Win32,60.06727535,2,3,71,21,1,,,,,
1.2979,response_1,shortValid,TEMPLE,MECHANIC,,,,,,WHISTLE,TREASURER,long,resources/sound/trials/audio_stim_comp12.mp3,60fd23ef6a559a87f905f619,28,Female,Right handed,2021-07-26_20h47.37.943,MA Experiment 2,2021.1.2,Win32,60.06727535,2,4,72,20,1,,,,,
1.4687,response_2,longFoil,HAMMER,MESSENGER,,,,,,SACRED,GALAXY,short,resources/sound/trials/audio_stim_comp1.mp3,60fd23ef6a559a87f905f619,28,Female,Right handed,2021-07-26_20h47.37.943,MA Experiment 2,2021.1.2,Win32,60.06727535,2,5,73,7,1,,,,,
1.5079,response_1,longFoil,FATHER,TEMPERATURE,,,,,,DAYLIGHT,MATERIAL,short,resources/sound/trials/audio_stim_human42.mp3,60fd23ef6a559a87f905f619,28,Female,Right handed,2021-07-26_20h47.37.943,MA Experiment 2,2021.1.2,Win32,60.06727535,2,6,74,9,1,,,,,
1.177,response_2,,KERNEL,OPENING,,,,,,HOBBY,COLONY,short,resources/sound/catchTrials/audio_control_human_project04.mp3,60fd23ef6a559a87f905f619,28,Female,Right handed,2021-07-26_20h47.37.943,MA Experiment 2,2021.1.2,Win32,60.06727535,,,,,,0,10,10,11,1
1.742,response_1,longFoil,ANCHOR,CHOCOLATE,,,,,,MINER,EMERALD,long,resources/sound/trials/audio_stim_comp6.mp3,60fd23ef6a559a87f905f619,28,Female,Right handed,2021-07-26_20h47.37.943,MA Experiment 2,2021.1.2,Win32,60.06727535,2,7,75,18,1,,,,,
1.5611,response_2,shortFoil,CABIN,MONUMENT,,,,,,HARDWARE,OVERCOAT,short,resources/sound/trials/audio_stim_human35.mp3,60fd23ef6a559a87f905f619,28,Female,Right handed,2021-07-26_20h47.37.943,MA Experiment 2,2021.1.2,Win32,60.06727535,2,8,76,8,1,,,,,
1.152,response_1,shortFoil,SEGMENT,INFECTION,,,,,,DAYLIGHT,MATERIAL,long,resources/sound/trials/audio_stim_human42.mp3,60fd23ef6a559a87f905f619,28,Female,Right handed,2021-07-26_20h47.37.943,MA Experiment 2,2021.1.2,Win32,60.06727535,2,9,77,26,1,,,,,
0.9313,response_1,shortFoil,JURY,ACROBAT,,,,,,PAINTER,VEHICLE,short,resources/sound/trials/audio_stim_human47.mp3,60fd23ef6a559a87f905f619,28,Female,Right handed,2021-07-26_20h47.37.943,MA Experiment 2,2021.1.2,Win32,60.06727535,2,10,78,11,1,,,,,
1.3818,response_2,,SHEEPSKIN,APPLIANCE,,,,,,BORDER,ALGEBRA,short,resources/sound/catchTrials/audio_control_comp_project00.mp3,60fd23ef6a559a87f905f619,28,Female,Right handed,2021-07-26_20h47.37.943,MA Experiment 2,2021.1.2,Win32,60.06727535,,,,,,0,3,3,0,1
1.5432,response_2,longValid,NAPKIN,CINNAMON,,,,,,MINER,EMERALD,short,resources/sound/trials/audio_stim_human6.mp3,60fd23ef6a559a87f905f619,28,Female,Right handed,2021-07-26_20h47.37.943,MA Experiment 2,2021.1.2,Win32,60.06727535,2,11,79,13,1,,,,,
1.0098,response_2,shortValid,PRINCESS,CORRIDOR,,,,,,SACRED,GALAXY,long,resources/sound/trials/audio_stim_comp1.mp3,60fd23ef6a559a87f905f619,28,Female,Right handed,2021-07-26_20h47.37.943,MA Experiment 2,2021.1.2,Win32,60.06727535,2,12,80,24,1,,,,,
1.0934,response_1,shortValid,SINGER,INSTITUTE,,,,,,CONCRETE,ENEMY,short,resources/sound/trials/audio_stim_human67.mp3,60fd23ef6a559a87f905f619,28,Female,Right handed,2021-07-26_20h47.37.943,MA Experiment 2,2021.1.2,Win32,60.06727535,2,13,81,10,1,,,,,
1.698,response_2,shortValid,MORNING,REFEREE,,,,,,RECEIPT,LIMOUSINE,long,resources/sound/trials/audio_stim_comp40.mp3,60fd23ef6a559a87f905f619,28,Female,Right handed,2021-07-26_20h47.37.943,MA Experiment 2,2021.1.2,Win32,60.06727535,2,14,82,19,1,,,,,
1.5153,response_1,,RUSTY,MOSQUITO,,,,,,VIOLET,LUBRICANT,long,resources/sound/catchTrials/audio_control_human_project07.mp3,60fd23ef6a559a87f905f619,28,Female,Right handed,2021-07-26_20h47.37.943,MA Experiment 2,2021.1.2,Win32,60.06727535,,,,,,0,11,11,28,1
1.2831,response_1,longValid,PIANO,JANITOR,,,,,,DRIZZLE,CARDINAL,long,resources/sound/trials/audio_stim_comp69.mp3,60fd23ef6a559a87f905f619,28,Female,Right handed,2021-07-26_20h47.37.943,MA Experiment 2,2021.1.2,Win32,60.06727535,2,15,83,17,1,,,,,
1.5959,response_2,shortFoil,INVOICE,GYMNASTICS,,,,,,RECEIPT,LIMOUSINE,short,resources/sound/trials/audio_stim_comp40.mp3,60fd23ef6a559a87f905f619,28,Female,Right handed,2021-07-26_20h47.37.943,MA Experiment 2,2021.1.2,Win32,60.06727535,2,16,84,2,1,,,,,
1.6442,response_1,longFoil,MISTRESS,DIAMOND,,,,,,ATHLETE,IVORY,short,resources/sound/trials/audio_stim_comp57.mp3,60fd23ef6a559a87f905f619,28,Female,Right handed,2021-07-26_20h47.37.943,MA Experiment 2,2021.1.2,Win32,60.06727535,2,17,85,5,1,,,,,
1.293,response_2,longValid,DANCER,ADMIRAL,,,,,,WORKER,VISITOR,short,resources/sound/trials/audio_stim_comp17.mp3,60fd23ef6a559a87f905f619,28,Female,Right handed,2021-07-26_20h47.37.943,MA Experiment 2,2021.1.2,Win32,60.06727535,2,18,86,6,1,,,,,
1.4102,response_2,,SOFA,ALCOHOL,,,,,,IRIS,VIOLIN,long,resources/sound/catchTrials/audio_control_human_project12.mp3,60fd23ef6a559a87f905f619,28,Female,Right handed,2021-07-26_20h47.37.943,MA Experiment 2,2021.1.2,Win32,60.06727535,,,,,,0,12,12,24,1
1.4167,response_2,shortValid,OLIVE,CLARINET,,,,,,RUBBER,PROPERTY,long,resources/sound/trials/audio_stim_human0.mp3,60fd23ef6a559a87f905f619,28,Female,Right handed,2021-07-26_20h47.37.943,MA Experiment 2,2021.1.2,Win32,60.06727535,2,19,87,29,1,,,,,
1.3102,response_1,longValid,DECOY,BUTTERFLY,,,,,,DRIZZLE,CARDINAL,short,resources/sound/trials/audio_stim_comp69.mp3,60fd23ef6a559a87f905f619,28,Female,Right handed,2021-07-26_20h47.37.943,MA Experiment 2,2021.1.2,Win32,60.06727535,2,20,88,0,1,,,,,
1.543,response_2,shortFoil,HAMSTER,FISHERMAN,,,,,,HARDWARE,OVERCOAT,long,resources/sound/trials/audio_stim_human35.mp3,60fd23ef6a559a87f905f619,28,Female,Right handed,2021-07-26_20h47.37.943,MA Experiment 2,2021.1.2,Win32,60.06727535,2,21,89,25,1,,,,,
1.7261,response_1,shortFoil,WALRUS,LECTURER,,,,,,WHISTLE,TREASURER,short,resources/sound/trials/audio_stim_comp12.mp3,60fd23ef6a559a87f905f619,28,Female,Right handed,2021-07-26_20h47.37.943,MA Experiment 2,2021.1.2,Win32,60.06727535,2,22,90,3,1,,,,,
1.6269,response_2,,WAFER,MEDICINE,,,,,,HOBBY,COLONY,long,resources/sound/catchTrials/audio_control_human_project04.mp3,60fd23ef6a559a87f905f619,28,Female,Right handed,2021-07-26_20h47.37.943,MA Experiment 2,2021.1.2,Win32,60.06727535,,,,,,0,9,9,27,1
1.3101,response_2,shortFoil,PICTURE,CARNATION,,,,,,ROBBER,RATTLESNAKE,short,resources/sound/trials/audio_stim_human64.mp3,60fd23ef6a559a87f905f619,28,Female,Right handed,2021-07-26_20h47.37.943,MA Experiment 2,2021.1.2,Win32,60.06727535,2,23,91,15,1,,,,,
1.8117,response_2,longValid,CAPTAIN,NEIGHBOURHOOD,,,,,,MINER,EMERALD,long,resources/sound/trials/audio_stim_human6.mp3,60fd23ef6a559a87f905f619,28,Female,Right handed,2021-07-26_20h47.37.943,MA Experiment 2,2021.1.2,Win32,60.06727535,2,24,92,30,1,,,,,
1.1448,response_1,longFoil,OFFICE,MINERAL,,,,,,CONCRETE,ENEMY,long,resources/sound/trials/audio_stim_human67.mp3,60fd23ef6a559a87f905f619,28,Female,Right handed,2021-07-26_20h47.37.943,MA Experiment 2,2021.1.2,Win32,60.06727535,2,25,93,27,1,,,,,
1.3817,response_2,shortFoil,MUSCLE,AVENUE,,,,,,BRAINSTORM,GREEN NEEDLE,long,resources/sound/trials/audio_stim_original.mp3,60fd23ef6a559a87f905f619,28,Female,Right handed,2021-07-26_20h47.37.943,MA Experiment 2,2021.1.2,Win32,60.06727535,2,26,94,33,1,,,,,
1.4986,response_1,,UNCLE,GINGERBREAD,,,,,,POISON,REVOLVER,long,resources/sound/catchTrials/audio_control_human_project01.mp3,60fd23ef6a559a87f905f619,28,Female,Right handed,2021-07-26_20h47.37.943,MA Experiment 2,2021.1.2,Win32,60.06727535,,,,,,0,26,26,25,1
1.9438,response_1,longFoil,CHIPMUNK,MICROSCOPE,,,,,,PAINTER,VEHICLE,long,resources/sound/trials/audio_stim_human47.mp3,60fd23ef6a559a87f905f619,28,Female,Right handed,2021-07-26_20h47.37.943,MA Experiment 2,2021.1.2,Win32,60.06727535,2,27,95,28,1,,,,,
1.7089,response_2,shortFoil,GRADUATE,UMBRELLA,,,,,,WORKER,VISITOR,long,resources/sound/trials/audio_stim_comp17.mp3,60fd23ef6a559a87f905f619,28,Female,Right handed,2021-07-26_20h47.37.943,MA Experiment 2,2021.1.2,Win32,60.06727535,2,28,96,23,1,,,,,
1.6585,response_2,shortFoil,SCOOTER,VINEGAR,,,,,,RUBBER,PROPERTY,short,resources/sound/trials/audio_stim_human0.mp3,60fd23ef6a559a87f905f619,28,Female,Right handed,2021-07-26_20h47.37.943,MA Experiment 2,2021.1.2,Win32,60.06727535,2,29,97,12,1,,,,,
1.9859,response_2,longFoil,DOORWAY,TANGERINE,,,,,,BRAINSTORM,GREEN NEEDLE,short,resources/sound/trials/audio_stim_original.mp3,60fd23ef6a559a87f905f619,28,Female,Right handed,2021-07-26_20h47.37.943,MA Experiment 2,2021.1.2,Win32,60.06727535,2,30,98,16,1,,,,,
1.4004,response_2,,NOVEL,ASBESTOS,,,,,,HOBBY,COLONY,short,resources/sound/catchTrials/audio_control_comp_project04.mp3,60fd23ef6a559a87f905f619,28,Female,Right handed,2021-07-26_20h47.37.943,MA Experiment 2,2021.1.2,Win32,60.06727535,,,,,,0,27,27,2,1
1.1264,response_2,longFoil,DIVING,DESTROYER,,,,,,PARTY,SANCTUARY,long,resources/sound/trials/audio_stim_human50.mp3,60fd23ef6a559a87f905f619,28,Female,Right handed,2021-07-26_20h47.37.943,MA Experiment 2,2021.1.2,Win32,60.06727535,2,31,99,31,1,,,,,
1.2604,response_1,shortValid,VAPOUR,PHYSICIAN,,,,,,ATHLETE,IVORY,long,resources/sound/trials/audio_stim_comp57.mp3,60fd23ef6a559a87f905f619,28,Female,Right handed,2021-07-26_20h47.37.943,MA Experiment 2,2021.1.2,Win32,60.06727535,2,32,100,22,1,,,,,
1.4769,response_2,longValid,FERTILE,PHOTOGRAPH,,,,,,MINER,EMERALD,short,resources/sound/trials/audio_stim_comp6.mp3,60fd23ef6a559a87f905f619,28,Female,Right handed,2021-07-26_20h47.37.943,MA Experiment 2,2021.1.2,Win32,60.06727535,2,33,101,1,1,,,,,
1.5765,response_2,longFoil,MOONLIGHT,HANDKERCHIEF,,,,,,SACRED,GALAXY,long,resources/sound/trials/audio_stim_comp1.mp3,60fd23ef6a559a87f905f619,28,Female,Right handed,2021-07-26_20h47.37.943,MA Experiment 2,2021.1.2,Win32,60.06727535,3,0,102,24,1,,,,,
1.8055,response_1,shortFoil,HURDLE,ABDOMEN,,,,,,DRIZZLE,CARDINAL,short,resources/sound/trials/audio_stim_comp69.mp3,60fd23ef6a559a87f905f619,28,Female,Right handed,2021-07-26_20h47.37.943,MA Experiment 2,2021.1.2,Win32,60.06727535,3,1,103,0,1,,,,,
0.8576,response_2,longValid,BUTTER,MERCURY,,,,,,MARBLE,CUSTOMER,short,resources/sound/trials/audio_stim_comp65.mp3,60fd23ef6a559a87f905f619,28,Female,Right handed,2021-07-26_20h47.37.943,MA Experiment 2,2021.1.2,Win32,60.06727535,3,2,104,4,1,,,,,
1.943,response_1,,WINDOW,CABINET,,,,,,JUGGLER,DANDELION,short,resources/sound/catchTrials/audio_control_human_project09.mp3,60fd23ef6a559a87f905f619,28,Female,Right handed,2021-07-26_20h47.37.943,MA Experiment 2,2021.1.2,Win32,60.06727535,,,,,,0,21,21,15,1
1.26,response_1,shortValid,CRYSTAL,ENVELOPE,,,,,,MINER,EMERALD,short,resources/sound/trials/audio_stim_comp6.mp3,60fd23ef6a559a87f905f619,28,Female,Right handed,2021-07-26_20h47.37.943,MA Experiment 2,2021.1.2,Win32,60.06727535,3,3,105,1,1,,,,,
1.0254,response_2,longValid,KENNEL,ENAMEL,,,,,,RECEIPT,LIMOUSINE,long,resources/sound/trials/audio_stim_comp40.mp3,60fd23ef6a559a87f905f619,28,Female,Right handed,2021-07-26_20h47.37.943,MA Experiment 2,2021.1.2,Win32,60.06727535,3,4,106,19,1,,,,,
1.9434,response_1,longFoil,PERSON,CIGARETTE,,,,,,MARBLE,CUSTOMER,long,resources/sound/trials/audio_stim_comp65.mp3,60fd23ef6a559a87f905f619,28,Female,Right handed,2021-07-26_20h47.37.943,MA Experiment 2,2021.1.2,Win32,60.06727535,3,5,107,21,1,,,,,
1.646,response_2,longValid,LEADER,AMMONIA,,,,,,HARDWARE,OVERCOAT,long,resources/sound/trials/audio_stim_human35.mp3,60fd23ef6a559a87f905f619,28,Female,Right handed,2021-07-26_20h47.37.943,MA Experiment 2,2021.1.2,Win32,60.06727535,3,6,108,25,1,,,,,
1.7425,response_2,,GIRDLE,HOSPITAL,,,,,,IRIS,VIOLIN,short,resources/sound/catchTrials/audio_control_comp_project12.mp3,60fd23ef6a559a87f905f619,28,Female,Right handed,2021-07-26_20h47.37.943,MA Experiment 2,2021.1.2,Win32,60.06727535,,,,,,0,15,15,4,1
1.2929,response_2,shortValid,NEIGHBOUR,DISSECTION,,,,,,WORKER,VISITOR,long,resources/sound/trials/audio_stim_comp17.mp3,60fd23ef6a559a87f905f619,28,Female,Right handed,2021-07-26_20h47.37.943,MA Experiment 2,2021.1.2,Win32,60.06727535,3,7,109,23,1,,,,,
1.4593,response_1,shortFoil,POLO,SPECIALIST,,,,,,ATHLETE,IVORY,short,resources/sound/trials/audio_stim_comp57.mp3,60fd23ef6a559a87f905f619,28,Female,Right handed,2021-07-26_20h47.37.943,MA Experiment 2,2021.1.2,Win32,60.06727535,3,8,110,5,1,,,,,
1.2945,response_2,longValid,PIPING,INDUSTRY,,,,,,RUBBER,PROPERTY,short,resources/sound/trials/audio_stim_human0.mp3,60fd23ef6a559a87f905f619,28,Female,Right handed,2021-07-26_20h47.37.943,MA Experiment 2,2021.1.2,Win32,60.06727535,3,9,111,12,1,,,,,
2.2595,response_1,longFoil,CIGAR,CAPITAL,,,,,,WHISTLE,TREASURER,short,resources/sound/trials/audio_stim_comp12.mp3,60fd23ef6a559a87f905f619,28,Female,Right handed,2021-07-26_20h47.37.943,MA Experiment 2,2021.1.2,Win32,60.06727535,3,10,112,3,1,,,,,
0.8265,response_2,,NATIVE,CANDLELIGHT,,,,,,CORNER,ENGINEER,long,resources/sound/catchTrials/audio_control_comp_project14.mp3,60fd23ef6a559a87f905f619,28,Female,Right handed,2021-07-26_20h47.37.943,MA Experiment 2,2021.1.2,Win32,60.06727535,,,,,,0,18,18,17,1
1.5803,response_2,shortFoil,FEVER,FAMILY,,,,,,SACRED,GALAXY,short,resources/sound/trials/audio_stim_comp1.mp3,60fd23ef6a559a87f905f619,28,Female,Right handed,2021-07-26_20h47.37.943,MA Experiment 2,2021.1.2,Win32,60.06727535,3,11,113,7,1,,,,,
1.7628,response_1,shortFoil,FOREARM,CATHEDRAL,,,,,,DRIZZLE,CARDINAL,long,resources/sound/trials/audio_stim_comp69.mp3,60fd23ef6a559a87f905f619,28,Female,Right handed,2021-07-26_20h47.37.943,MA Experiment 2,2021.1.2,Win32,60.06727535,3,12,114,17,1,,,,,
1.1604,response_1,longValid,VESSEL,SAXOPHONE,,,,,,ATHLETE,IVORY,long,resources/sound/trials/audio_stim_comp57.mp3,60fd23ef6a559a87f905f619,28,Female,Right handed,2021-07-26_20h47.37.943,MA Experiment 2,2021.1.2,Win32,60.06727535,3,13,115,22,1,,,,,
0.8092,response_1,shortValid,VILLAGE,PROFESSOR,,,,,,MINER,EMERALD,short,resources/sound/trials/audio_stim_human6.mp3,60fd23ef6a559a87f905f619,28,Female,Right handed,2021-07-26_20h47.37.943,MA Experiment 2,2021.1.2,Win32,60.06727535,3,14,116,13,1,,,,,
0.777,response_1,,HARBOUR,PROPELLER,,,,,,VIOLET,LUBRICANT,short,resources/sound/catchTrials/audio_control_human_project07.mp3,60fd23ef6a559a87f905f619,28,Female,Right handed,2021-07-26_20h47.37.943,MA Experiment 2,2021.1.2,Win32,60.06727535,,,,,,0,2,2,12,1
1.6765,response_1,longFoil,BERRY,GORILLA,,,,,,MINER,EMERALD,long,resources/sound/trials/audio_stim_human6.mp3,60fd23ef6a559a87f905f619,28,Female,Right handed,2021-07-26_20h47.37.943,MA Experiment 2,2021.1.2,Win32,60.06727535,3,15,117,30,1,,,,,
1.6595,response_2,longValid,PATIENT,FIREWOOD,,,,,,HARDWARE,OVERCOAT,short,resources/sound/trials/audio_stim_human35.mp3,60fd23ef6a559a87f905f619,28,Female,Right handed,2021-07-26_20h47.37.943,MA Experiment 2,2021.1.2,Win32,60.06727535,3,16,118,8,1,,,,,
0.8933,response_1,longValid,NURSERY,POTATO,,,,,,CONCRETE,ENEMY,short,resources/sound/trials/audio_stim_human67.mp3,60fd23ef6a559a87f905f619,28,Female,Right handed,2021-07-26_20h47.37.943,MA Experiment 2,2021.1.2,Win32,60.06727535,3,17,119,10,1,,,,,
1.8424,response_2,shortFoil,PODIUM,HONEYMOON,,,,,,RUBBER,PROPERTY,long,resources/sound/trials/audio_stim_human0.mp3,60fd23ef6a559a87f905f619,28,Female,Right handed,2021-07-26_20h47.37.943,MA Experiment 2,2021.1.2,Win32,60.06727535,3,18,120,29,1,,,,,
0.8761,response_2,,FAIRY,INSTRUMENT,,,,,,BORDER,ALGEBRA,long,resources/sound/catchTrials/audio_control_comp_project00.mp3,60fd23ef6a559a87f905f619,28,Female,Right handed,2021-07-26_20h47.37.943,MA Experiment 2,2021.1.2,Win32,60.06727535,,,,,,0,7,7,16,1
0.9093,response_1,shortValid,DWELLER,FURNITURE,,,,,,DAYLIGHT,MATERIAL,short,resources/sound/trials/audio_stim_human42.mp3,60fd23ef6a559a87f905f619,28,Female,Right handed,2021-07-26_20h47.37.943,MA Experiment 2,2021.1.2,Win32,60.06727535,3,19,121,9,1,,,,,
1.6101,response_2,longValid,WRITING,HURRICANE,,,,,,BRAINSTORM,GREEN NEEDLE,short,resources/sound/trials/audio_stim_original.mp3,60fd23ef6a559a87f905f619,28,Female,Right handed,2021-07-26_20h47.37.943,MA Experiment 2,2021.1.2,Win32,60.06727535,3,20,122,16,1,,,,,
1.6594,response_2,shortValid,KETTLE,PROJECTOR,,,,,,RECEIPT,LIMOUSINE,short,resources/sound/trials/audio_stim_comp40.mp3,60fd23ef6a559a87f905f619,28,Female,Right handed,2021-07-26_20h47.37.943,MA Experiment 2,2021.1.2,Win32,60.06727535,3,21,123,2,1,,,,,
1.7083,response_1,longValid,LIQUID,LEMONADE,,,,,,PAINTER,VEHICLE,short,resources/sound/trials/audio_stim_human47.mp3,60fd23ef6a559a87f905f619,28,Female,Right handed,2021-07-26_20h47.37.943,MA Experiment 2,2021.1.2,Win32,60.06727535,3,22,124,11,1,,,,,
1.2988,response_2,,TUMBLE,GALLERY,,,,,,IRIS,VIOLIN,short,resources/sound/catchTrials/audio_control_human_project12.mp3,60fd23ef6a559a87f905f619,28,Female,Right handed,2021-07-26_20h47.37.943,MA Experiment 2,2021.1.2,Win32,60.06727535,,,,,,0,24,24,8,1
1.2937,response_1,shortValid,SODA,EMULSION,,,,,,WORKER,VISITOR,short,resources/sound/trials/audio_stim_comp17.mp3,60fd23ef6a559a87f905f619,28,Female,Right handed,2021-07-26_20h47.37.943,MA Experiment 2,2021.1.2,Win32,60.06727535,3,23,125,6,1,,,,,
1.5768,response_2,longFoil,TWEEZER,POLICEMAN,,,,,,ROBBER,RATTLESNAKE,long,resources/sound/trials/audio_stim_human64.mp3,60fd23ef6a559a87f905f619,28,Female,Right handed,2021-07-26_20h47.37.943,MA Experiment 2,2021.1.2,Win32,60.06727535,3,24,126,32,1,,,,,
1.2162,response_1,longValid,LIGHTNING,GRASSHOPPER,,,,,,CONCRETE,ENEMY,long,resources/sound/trials/audio_stim_human67.mp3,60fd23ef6a559a87f905f619,28,Female,Right handed,2021-07-26_20h47.37.943,MA Experiment 2,2021.1.2,Win32,60.06727535,3,25,127,27,1,,,,,
1.8824,response_2,shortValid,TORTURE,STRAWBERRY,,,,,,ROBBER,RATTLESNAKE,short,resources/sound/trials/audio_stim_human64.mp3,60fd23ef6a559a87f905f619,28,Female,Right handed,2021-07-26_20h47.37.943,MA Experiment 2,2021.1.2,Win32,60.06727535,3,26,128,15,1,,,,,
1.1665,response_2,,INCOME,POLIO,,,,,,CORNER,ENGINEER,short,resources/sound/catchTrials/audio_control_comp_project14.mp3,60fd23ef6a559a87f905f619,28,Female,Right handed,2021-07-26_20h47.37.943,MA Experiment 2,2021.1.2,Win32,60.06727535,,,,,,0,22,22,1,1
1.661,response_1,longValid,CURFEW,ATTENDANT,,,,,,WHISTLE,TREASURER,long,resources/sound/trials/audio_stim_comp12.mp3,60fd23ef6a559a87f905f619,28,Female,Right handed,2021-07-26_20h47.37.943,MA Experiment 2,2021.1.2,Win32,60.06727535,3,27,129,20,1,,,,,
1.8585,response_2,longValid,MEDICINE,ALPHABET,,,,,,MINER,EMERALD,long,resources/sound/trials/audio_stim_comp6.mp3,60fd23ef6a559a87f905f619,28,Female,Right handed,2021-07-26_20h47.37.943,MA Experiment 2,2021.1.2,Win32,60.06727535,3,28,130,18,1,,,,,
1.0601,response_2,shortValid,CEREAL,INTERVIEW,,,,,,BRAINSTORM,GREEN NEEDLE,long,resources/sound/trials/audio_stim_original.mp3,60fd23ef6a559a87f905f619,28,Female,Right handed,2021-07-26_20h47.37.943,MA Experiment 2,2021.1.2,Win32,60.06727535,3,29,131,33,1,,,,,
1.744,response_2,longValid,EVENING,ATHLETICS,,,,,,PARTY,SANCTUARY,short,resources/sound/trials/audio_stim_human50.mp3,60fd23ef6a559a87f905f619,28,Female,Right handed,2021-07-26_20h47.37.943,MA Experiment 2,2021.1.2,Win32,60.06727535,3,30,132,14,1,,,,,
1.2346,response_2,,RABBI,HEADQUARTERS,,,,,,JOURNAL,ROBBERY,long,resources/sound/catchTrials/audio_control_human_project02.mp3,60fd23ef6a559a87f905f619,28,Female,Right handed,2021-07-26_20h47.37.943,MA Experiment 2,2021.1.2,Win32,60.06727535,,,,,,0,20,20,29,1
2.2929,response_1,shortFoil,TRAITOR,HEROIN,,,,,,PAINTER,VEHICLE,long,resources/sound/trials/audio_stim_human47.mp3,60fd23ef6a559a87f905f619,28,Female,Right handed,2021-07-26_20h47.37.943,MA Experiment 2,2021.1.2,Win32,60.06727535,3,31,133,28,1,,,,,
1.1772,response_2,longValid,LOBSTER,ICICLE,,,,,,PARTY,SANCTUARY,long,resources/sound/trials/audio_stim_human50.mp3,60fd23ef6a559a87f905f619,28,Female,Right handed,2021-07-26_20h47.37.943,MA Experiment 2,2021.1.2,Win32,60.06727535,3,32,134,31,1,,,,,
1.8793,response_1,shortValid,SHOULDER,COMMITTEE,,,,,,DAYLIGHT,MATERIAL,long,resources/sound/trials/audio_stim_human42.mp3,60fd23ef6a559a87f905f619,28,Female,Right handed,2021-07-26_20h47.37.943,MA Experiment 2,2021.1.2,Win32,60.06727535,3,33,135,26,1,,,,,
