response.time,response,cueTarget,rand_foil_1,rand_foil_2,prac_trials.thisRepN,prac_trials.thisTrialN,prac_trials.thisN,prac_trials.thisIndex,prac_trials.ran,word_1,word_2,cue,file_path,participant,age,gender,handedness,date,expName,psychopyVersion,OS,frameRate,trials.thisRepN,trials.thisTrialN,trials.thisN,trials.thisIndex,trials.ran,catchTrials.thisRepN,catchTrials.thisTrialN,catchTrials.thisN,catchTrials.thisIndex,catchTrials.ran
2.1882,response_2,longFoil,CIGAR,CONVENTION,0,0,0,4,1,FIZZY,ELECTRIC,short,resources/sound/prac_trials/practice_cue4.mp3,60fd970d6c2495cd7188ebfe,19,Non-binary,Right handed,2021-07-26_20h59.25.031,MA Experiment 2,2021.1.2,Win32,30.01290555,,,,,,,,,,
2.6277,response_1,longFoil,TRAITOR,FACTORY,0,1,1,2,1,RECENT,TOBACCO,short,resources/sound/prac_trials/practice_cue2.mp3,60fd970d6c2495cd7188ebfe,19,Non-binary,Right handed,2021-07-26_20h59.25.031,MA Experiment 2,2021.1.2,Win32,30.01290555,,,,,,,,,,
1.5449,response_2,shortValid,CRYSTAL,ICICLE,0,2,2,11,1,KETCHUP,GONDOLA,long,resources/sound/prac_trials/practice_cue_human11.mp3,60fd970d6c2495cd7188ebfe,19,Non-binary,Right handed,2021-07-26_20h59.25.031,MA Experiment 2,2021.1.2,Win32,30.01290555,,,,,,,,,,
1.5289,response_2,shortFoil,EVENING,CANDLELIGHT,0,3,3,6,1,VACANT,SALVATION,long,resources/sound/prac_trials/practice_cue6.mp3,60fd970d6c2495cd7188ebfe,19,Non-binary,Right handed,2021-07-26_20h59.25.031,MA Experiment 2,2021.1.2,Win32,30.01290555,,,,,,,,,,
1.1596,response_1,shortValid,CAPTAIN,OXYGEN,0,4,4,0,1,AARDVARK,FALLACY,short,resources/sound/prac_trials/practice_cue0.mp3,60fd970d6c2495cd7188ebfe,19,Non-binary,Right handed,2021-07-26_20h59.25.031,MA Experiment 2,2021.1.2,Win32,30.01290555,,,,,,,,,,
1.3594,response_2,longFoil,LOBSTER,CHOCOLATE,0,5,5,8,1,DAGGER,EMPHASIS,long,resources/sound/prac_trials/practice_cue8.mp3,60fd970d6c2495cd7188ebfe,19,Non-binary,Right handed,2021-07-26_20h59.25.031,MA Experiment 2,2021.1.2,Win32,30.01290555,,,,,,,,,,
2.088,response_2,longFoil,BURNER,CORRIDOR,0,6,6,7,1,BUCKLE,WALLABY,long,resources/sound/prac_trials/practice_cue_human7.mp3,60fd970d6c2495cd7188ebfe,19,Non-binary,Right handed,2021-07-26_20h59.25.031,MA Experiment 2,2021.1.2,Win32,30.01290555,,,,,,,,,,
1.6213,response_2,shortFoil,MISTRESS,PHOTOGRAPH,0,7,7,9,1,GRUMPY,LABYRINTH,long,resources/sound/prac_trials/practice_cue_human9.mp3,60fd970d6c2495cd7188ebfe,19,Non-binary,Right handed,2021-07-26_20h59.25.031,MA Experiment 2,2021.1.2,Win32,30.01290555,,,,,,,,,,
1.3648,response_1,longFoil,SCOOTER,LEMONADE,0,8,8,1,1,CABLE,REPUBLIC,short,resources/sound/prac_trials/practice_cue_human1.mp3,60fd970d6c2495cd7188ebfe,19,Non-binary,Right handed,2021-07-26_20h59.25.031,MA Experiment 2,2021.1.2,Win32,30.01290555,,,,,,,,,,
0.9136,response_1,longFoil,DIVING,MOSQUITO,0,9,9,10,1,SAFFRON,JAVELIN,long,resources/sound/prac_trials/practice_cue10.mp3,60fd970d6c2495cd7188ebfe,19,Non-binary,Right handed,2021-07-26_20h59.25.031,MA Experiment 2,2021.1.2,Win32,30.01290555,,,,,,,,,,
1.3028,response_2,longFoil,DECOY,ALCOHOL,0,10,10,3,1,EAGER,QUALIFY,short,resources/sound/prac_trials/practice_cue_human3.mp3,60fd970d6c2495cd7188ebfe,19,Non-binary,Right handed,2021-07-26_20h59.25.031,MA Experiment 2,2021.1.2,Win32,30.01290555,,,,,,,,,,
1.2051,response_2,shortFoil,PRINCESS,PROPELLER,0,11,11,5,1,NONSENSE,OASIS,short,resources/sound/prac_trials/practice_cue_human5.mp3,60fd970d6c2495cd7188ebfe,19,Non-binary,Right handed,2021-07-26_20h59.25.031,MA Experiment 2,2021.1.2,Win32,30.01290555,,,,,,,,,,
1.0435,response_2,shortFoil,LEADER,RETAILER,,,,,,WHISTLE,TREASURER,long,resources/sound/trials/audio_stim_comp12.mp3,60fd970d6c2495cd7188ebfe,19,Non-binary,Right handed,2021-07-26_20h59.25.031,MA Experiment 2,2021.1.2,Win32,30.01290555,0,0,0,20,1,,,,,
0.8669,response_1,shortValid,CURFEW,AVENUE,,,,,,DAYLIGHT,MATERIAL,long,resources/sound/trials/audio_stim_human42.mp3,60fd970d6c2495cd7188ebfe,19,Non-binary,Right handed,2021-07-26_20h59.25.031,MA Experiment 2,2021.1.2,Win32,30.01290555,0,1,1,26,1,,,,,
2.5988,response_2,shortFoil,MUSCLE,GINGERBREAD,,,,,,MARBLE,CUSTOMER,long,resources/sound/trials/audio_stim_comp65.mp3,60fd970d6c2495cd7188ebfe,19,Non-binary,Right handed,2021-07-26_20h59.25.031,MA Experiment 2,2021.1.2,Win32,30.01290555,0,2,2,21,1,,,,,
1.6128,response_2,,FAIRY,BUTTERFLY,,,,,,JOURNAL,ROBBERY,short,resources/sound/catchTrials/audio_control_human_project02.mp3,60fd970d6c2495cd7188ebfe,19,Non-binary,Right handed,2021-07-26_20h59.25.031,MA Experiment 2,2021.1.2,Win32,30.01290555,,,,,,0,8,8,13,1
0.803,response_1,longValid,DANCER,CATHEDRAL,,,,,,MINER,EMERALD,long,resources/sound/trials/audio_stim_human6.mp3,60fd970d6c2495cd7188ebfe,19,Non-binary,Right handed,2021-07-26_20h59.25.031,MA Experiment 2,2021.1.2,Win32,30.01290555,0,3,3,30,1,,,,,
0.8248,response_2,longValid,SOFA,INFECTION,,,,,,SACRED,GALAXY,long,resources/sound/trials/audio_stim_comp1.mp3,60fd970d6c2495cd7188ebfe,19,Non-binary,Right handed,2021-07-26_20h59.25.031,MA Experiment 2,2021.1.2,Win32,30.01290555,0,4,4,24,1,,,,,
1.0433,response_1,longValid,FERTILE,DIAMOND,,,,,,DAYLIGHT,MATERIAL,short,resources/sound/trials/audio_stim_human42.mp3,60fd970d6c2495cd7188ebfe,19,Non-binary,Right handed,2021-07-26_20h59.25.031,MA Experiment 2,2021.1.2,Win32,30.01290555,0,5,5,9,1,,,,,
1.0304,response_2,longValid,INCOME,STRAWBERRY,,,,,,CONCRETE,ENEMY,long,resources/sound/trials/audio_stim_human67.mp3,60fd970d6c2495cd7188ebfe,19,Non-binary,Right handed,2021-07-26_20h59.25.031,MA Experiment 2,2021.1.2,Win32,30.01290555,0,6,6,27,1,,,,,
1.1347,response_2,,SHOULDER,AMBULANCE,,,,,,HOBBY,COLONY,short,resources/sound/catchTrials/audio_control_comp_project04.mp3,60fd970d6c2495cd7188ebfe,19,Non-binary,Right handed,2021-07-26_20h59.25.031,MA Experiment 2,2021.1.2,Win32,30.01290555,,,,,,0,14,14,2,1
1.0456,response_2,longValid,MURDER,GRASSHOPPER,,,,,,MINER,EMERALD,long,resources/sound/trials/audio_stim_comp6.mp3,60fd970d6c2495cd7188ebfe,19,Non-binary,Right handed,2021-07-26_20h59.25.031,MA Experiment 2,2021.1.2,Win32,30.01290555,0,7,7,18,1,,,,,
0.9374,response_2,longFoil,NURSERY,BEVERAGE,,,,,,WORKER,VISITOR,long,resources/sound/trials/audio_stim_comp17.mp3,60fd970d6c2495cd7188ebfe,19,Non-binary,Right handed,2021-07-26_20h59.25.031,MA Experiment 2,2021.1.2,Win32,30.01290555,0,8,8,23,1,,,,,
0.9812,response_2,shortValid,POLO,TANGERINE,,,,,,RUBBER,PROPERTY,long,resources/sound/trials/audio_stim_human0.mp3,60fd970d6c2495cd7188ebfe,19,Non-binary,Right handed,2021-07-26_20h59.25.031,MA Experiment 2,2021.1.2,Win32,30.01290555,0,9,9,29,1,,,,,
0.8694,response_2,longValid,VILLAGE,MONUMENT,,,,,,PARTY,SANCTUARY,short,resources/sound/trials/audio_stim_human50.mp3,60fd970d6c2495cd7188ebfe,19,Non-binary,Right handed,2021-07-26_20h59.25.031,MA Experiment 2,2021.1.2,Win32,30.01290555,0,10,10,14,1,,,,,
0.8397,response_2,,WIRE,APPLIANCE,,,,,,NAVY,RECTANGLE,long,resources/sound/catchTrials/audio_control_comp_project06.mp3,60fd970d6c2495cd7188ebfe,19,Non-binary,Right handed,2021-07-26_20h59.25.031,MA Experiment 2,2021.1.2,Win32,30.01290555,,,,,,0,26,26,22,1
1.4247,response_2,longValid,ANCHOR,CLARINET,,,,,,SACRED,GALAXY,short,resources/sound/trials/audio_stim_comp1.mp3,60fd970d6c2495cd7188ebfe,19,Non-binary,Right handed,2021-07-26_20h59.25.031,MA Experiment 2,2021.1.2,Win32,30.01290555,0,11,11,7,1,,,,,
1.0524,response_2,shortValid,DWELLER,OPENING,,,,,,MARBLE,CUSTOMER,short,resources/sound/trials/audio_stim_comp65.mp3,60fd970d6c2495cd7188ebfe,19,Non-binary,Right handed,2021-07-26_20h59.25.031,MA Experiment 2,2021.1.2,Win32,30.01290555,0,12,12,4,1,,,,,
1.0504,response_2,shortValid,STOCKING,MINERAL,,,,,,WORKER,VISITOR,short,resources/sound/trials/audio_stim_comp17.mp3,60fd970d6c2495cd7188ebfe,19,Non-binary,Right handed,2021-07-26_20h59.25.031,MA Experiment 2,2021.1.2,Win32,30.01290555,0,13,13,6,1,,,,,
1.436,response_1,shortValid,RABBI,REFEREE,,,,,,DRIZZLE,CARDINAL,long,resources/sound/trials/audio_stim_comp69.mp3,60fd970d6c2495cd7188ebfe,19,Non-binary,Right handed,2021-07-26_20h59.25.031,MA Experiment 2,2021.1.2,Win32,30.01290555,0,14,14,17,1,,,,,
1.0263,response_2,,BERRY,GORILLA,,,,,,HOBBY,COLONY,long,resources/sound/catchTrials/audio_control_comp_project04.mp3,60fd970d6c2495cd7188ebfe,19,Non-binary,Right handed,2021-07-26_20h59.25.031,MA Experiment 2,2021.1.2,Win32,30.01290555,,,,,,0,30,30,18,1
1.0259,response_2,longValid,SHEEPSKIN,CARNATION,,,,,,HARDWARE,OVERCOAT,long,resources/sound/trials/audio_stim_human35.mp3,60fd970d6c2495cd7188ebfe,19,Non-binary,Right handed,2021-07-26_20h59.25.031,MA Experiment 2,2021.1.2,Win32,30.01290555,0,15,15,25,1,,,,,
0.8903,response_2,longFoil,KENNEL,PHYSICIAN,,,,,,PARTY,SANCTUARY,long,resources/sound/trials/audio_stim_human50.mp3,60fd970d6c2495cd7188ebfe,19,Non-binary,Right handed,2021-07-26_20h59.25.031,MA Experiment 2,2021.1.2,Win32,30.01290555,0,16,16,31,1,,,,,
1.6559,response_2,shortValid,DIAL,POTATO,,,,,,BRAINSTORM,GREEN NEEDLE,long,resources/sound/trials/audio_stim_original.mp3,60fd970d6c2495cd7188ebfe,19,Non-binary,Right handed,2021-07-26_20h59.25.031,MA Experiment 2,2021.1.2,Win32,30.01290555,0,17,17,33,1,,,,,
1.1571,response_2,longFoil,CABIN,MICROSCOPE,,,,,,ROBBER,RATTLESNAKE,short,resources/sound/trials/audio_stim_human64.mp3,60fd970d6c2495cd7188ebfe,19,Non-binary,Right handed,2021-07-26_20h59.25.031,MA Experiment 2,2021.1.2,Win32,30.01290555,0,18,18,15,1,,,,,
1.1632,response_1,,ACRE,CAMERA,,,,,,JUGGLER,DANDELION,long,resources/sound/catchTrials/audio_control_human_project09.mp3,60fd970d6c2495cd7188ebfe,19,Non-binary,Right handed,2021-07-26_20h59.25.031,MA Experiment 2,2021.1.2,Win32,30.01290555,,,,,,0,28,28,31,1
0.8977,response_1,longValid,PIANO,CABINET,,,,,,CONCRETE,ENEMY,short,resources/sound/trials/audio_stim_human67.mp3,60fd970d6c2495cd7188ebfe,19,Non-binary,Right handed,2021-07-26_20h59.25.031,MA Experiment 2,2021.1.2,Win32,30.01290555,0,19,19,10,1,,,,,
0.975,response_1,shortValid,PERSON,POLICEMAN,,,,,,WHISTLE,TREASURER,short,resources/sound/trials/audio_stim_comp12.mp3,60fd970d6c2495cd7188ebfe,19,Non-binary,Right handed,2021-07-26_20h59.25.031,MA Experiment 2,2021.1.2,Win32,30.01290555,0,20,20,3,1,,,,,
0.7542,response_2,shortValid,MURAL,NEWSPAPER,,,,,,RUBBER,PROPERTY,short,resources/sound/trials/audio_stim_human0.mp3,60fd970d6c2495cd7188ebfe,19,Non-binary,Right handed,2021-07-26_20h59.25.031,MA Experiment 2,2021.1.2,Win32,30.01290555,0,21,21,12,1,,,,,
1.3278,response_2,longFoil,FOREARM,HEROIN,,,,,,MINER,EMERALD,short,resources/sound/trials/audio_stim_human6.mp3,60fd970d6c2495cd7188ebfe,19,Non-binary,Right handed,2021-07-26_20h59.25.031,MA Experiment 2,2021.1.2,Win32,30.01290555,0,22,22,13,1,,,,,
1.1403,response_1,,OFFICE,HANDKERCHIEF,,,,,,VIOLET,LUBRICANT,long,resources/sound/catchTrials/audio_control_comp_project07.mp3,60fd970d6c2495cd7188ebfe,19,Non-binary,Right handed,2021-07-26_20h59.25.031,MA Experiment 2,2021.1.2,Win32,30.01290555,,,,,,0,11,11,19,1
1.0168,response_1,shortValid,LIQUID,CROCODILE,,,,,,DRIZZLE,CARDINAL,short,resources/sound/trials/audio_stim_comp69.mp3,60fd970d6c2495cd7188ebfe,19,Non-binary,Right handed,2021-07-26_20h59.25.031,MA Experiment 2,2021.1.2,Win32,30.01290555,0,23,23,0,1,,,,,
0.8807,response_1,shortValid,GIRDLE,HURRICANE,,,,,,ATHLETE,IVORY,short,resources/sound/trials/audio_stim_comp57.mp3,60fd970d6c2495cd7188ebfe,19,Non-binary,Right handed,2021-07-26_20h59.25.031,MA Experiment 2,2021.1.2,Win32,30.01290555,0,24,24,5,1,,,,,
1.3638,response_2,shortValid,STATION,MEDICINE,,,,,,BRAINSTORM,GREEN NEEDLE,short,resources/sound/trials/audio_stim_original.mp3,60fd970d6c2495cd7188ebfe,19,Non-binary,Right handed,2021-07-26_20h59.25.031,MA Experiment 2,2021.1.2,Win32,30.01290555,0,25,25,16,1,,,,,
1.4898,response_2,longFoil,HAMMER,INSTRUMENT,,,,,,MINER,EMERALD,short,resources/sound/trials/audio_stim_comp6.mp3,60fd970d6c2495cd7188ebfe,19,Non-binary,Right handed,2021-07-26_20h59.25.031,MA Experiment 2,2021.1.2,Win32,30.01290555,0,26,26,1,1,,,,,
0.7745,response_2,,BUTTER,ASBESTOS,,,,,,SPINACH,APRICOT,long,resources/sound/catchTrials/audio_control_comp_project18.mp3,60fd970d6c2495cd7188ebfe,19,Non-binary,Right handed,2021-07-26_20h59.25.031,MA Experiment 2,2021.1.2,Win32,30.01290555,,,,,,0,7,7,21,1
0.9326,response_1,shortValid,DUEL,HONEYMOON,,,,,,ATHLETE,IVORY,long,resources/sound/trials/audio_stim_comp57.mp3,60fd970d6c2495cd7188ebfe,19,Non-binary,Right handed,2021-07-26_20h59.25.031,MA Experiment 2,2021.1.2,Win32,30.01290555,0,27,27,22,1,,,,,
0.9634,response_2,longValid,SADDLE,CIGARETTE,,,,,,PAINTER,VEHICLE,long,resources/sound/trials/audio_stim_human47.mp3,60fd970d6c2495cd7188ebfe,19,Non-binary,Right handed,2021-07-26_20h59.25.031,MA Experiment 2,2021.1.2,Win32,30.01290555,0,28,28,28,1,,,,,
1.2724,response_2,shortValid,PATIENT,TEMPERATURE,,,,,,RECEIPT,LIMOUSINE,long,resources/sound/trials/audio_stim_comp40.mp3,60fd970d6c2495cd7188ebfe,19,Non-binary,Right handed,2021-07-26_20h59.25.031,MA Experiment 2,2021.1.2,Win32,30.01290555,0,29,29,19,1,,,,,
0.9114,response_2,longValid,INVOICE,ATHLETICS,,,,,,HARDWARE,OVERCOAT,short,resources/sound/trials/audio_stim_human35.mp3,60fd970d6c2495cd7188ebfe,19,Non-binary,Right handed,2021-07-26_20h59.25.031,MA Experiment 2,2021.1.2,Win32,30.01290555,0,30,30,8,1,,,,,
1.0949,response_1,,TUMBLE,LECTURER,,,,,,VIOLET,LUBRICANT,short,resources/sound/catchTrials/audio_control_comp_project07.mp3,60fd970d6c2495cd7188ebfe,19,Non-binary,Right handed,2021-07-26_20h59.25.031,MA Experiment 2,2021.1.2,Win32,30.01290555,,,,,,0,16,16,3,1
0.8484,response_1,shortValid,TEMPLE,ABDOMEN,,,,,,PAINTER,VEHICLE,short,resources/sound/trials/audio_stim_human47.mp3,60fd970d6c2495cd7188ebfe,19,Non-binary,Right handed,2021-07-26_20h59.25.031,MA Experiment 2,2021.1.2,Win32,30.01290555,0,31,31,11,1,,,,,
1.1847,response_2,shortFoil,UNCLE,MERCURY,,,,,,ROBBER,RATTLESNAKE,long,resources/sound/trials/audio_stim_human64.mp3,60fd970d6c2495cd7188ebfe,19,Non-binary,Right handed,2021-07-26_20h59.25.031,MA Experiment 2,2021.1.2,Win32,30.01290555,0,32,32,32,1,,,,,
1.2389,response_1,shortValid,HAMSTER,DESTROYER,,,,,,RECEIPT,LIMOUSINE,short,resources/sound/trials/audio_stim_comp40.mp3,60fd970d6c2495cd7188ebfe,19,Non-binary,Right handed,2021-07-26_20h59.25.031,MA Experiment 2,2021.1.2,Win32,30.01290555,0,33,33,2,1,,,,,
1.0345,response_2,longFoil,PODIUM,FAMILY,,,,,,WORKER,VISITOR,short,resources/sound/trials/audio_stim_comp17.mp3,60fd970d6c2495cd7188ebfe,19,Non-binary,Right handed,2021-07-26_20h59.25.031,MA Experiment 2,2021.1.2,Win32,30.01290555,1,0,34,6,1,,,,,
0.6014,response_2,longValid,EARTHWORM,MINISTER,,,,,,ROBBER,RATTLESNAKE,short,resources/sound/trials/audio_stim_human64.mp3,60fd970d6c2495cd7188ebfe,19,Non-binary,Right handed,2021-07-26_20h59.25.031,MA Experiment 2,2021.1.2,Win32,30.01290555,1,1,35,15,1,,,,,
1.3045,response_2,shortFoil,OLIVE,COMMITTEE,,,,,,RECEIPT,LIMOUSINE,long,resources/sound/trials/audio_stim_comp40.mp3,60fd970d6c2495cd7188ebfe,19,Non-binary,Right handed,2021-07-26_20h59.25.031,MA Experiment 2,2021.1.2,Win32,30.01290555,1,2,36,19,1,,,,,
1.1623,response_1,,FATHER,SETTLEMENT,,,,,,POISON,REVOLVER,short,resources/sound/catchTrials/audio_control_human_project01.mp3,60fd970d6c2495cd7188ebfe,19,Non-binary,Right handed,2021-07-26_20h59.25.031,MA Experiment 2,2021.1.2,Win32,30.01290555,,,,,,0,13,13,9,1
1.4329,response_2,shortValid,HURDLE,FURNITURE,,,,,,MARBLE,CUSTOMER,long,resources/sound/trials/audio_stim_comp65.mp3,60fd970d6c2495cd7188ebfe,19,Non-binary,Right handed,2021-07-26_20h59.25.031,MA Experiment 2,2021.1.2,Win32,30.01290555,1,3,37,21,1,,,,,
1.0897,response_2,shortFoil,SEGMENT,MECHANIC,,,,,,MINER,EMERALD,short,resources/sound/trials/audio_stim_human6.mp3,60fd970d6c2495cd7188ebfe,19,Non-binary,Right handed,2021-07-26_20h59.25.031,MA Experiment 2,2021.1.2,Win32,30.01290555,1,4,38,13,1,,,,,
1.164,response_2,shortValid,LIGHTNING,AMMONIA,,,,,,PARTY,SANCTUARY,long,resources/sound/trials/audio_stim_human50.mp3,60fd970d6c2495cd7188ebfe,19,Non-binary,Right handed,2021-07-26_20h59.25.031,MA Experiment 2,2021.1.2,Win32,30.01290555,1,5,39,31,1,,,,,
0.9844,response_1,longFoil,WAFER,INDUSTRY,,,,,,DAYLIGHT,MATERIAL,long,resources/sound/trials/audio_stim_human42.mp3,60fd970d6c2495cd7188ebfe,19,Non-binary,Right handed,2021-07-26_20h59.25.031,MA Experiment 2,2021.1.2,Win32,30.01290555,1,6,40,26,1,,,,,
1.1591,response_2,,VALLEY,INSTITUTE,,,,,,SPINACH,APRICOT,short,resources/sound/catchTrials/audio_control_comp_project18.mp3,60fd970d6c2495cd7188ebfe,19,Non-binary,Right handed,2021-07-26_20h59.25.031,MA Experiment 2,2021.1.2,Win32,30.01290555,,,,,,0,18,18,5,1
1.1004,response_1,longFoil,TORTURE,ATTENDANT,,,,,,DAYLIGHT,MATERIAL,short,resources/sound/trials/audio_stim_human42.mp3,60fd970d6c2495cd7188ebfe,19,Non-binary,Right handed,2021-07-26_20h59.25.031,MA Experiment 2,2021.1.2,Win32,30.01290555,1,7,41,9,1,,,,,
1.1049,response_2,longValid,JURY,CINNAMON,,,,,,WHISTLE,TREASURER,short,resources/sound/trials/audio_stim_comp12.mp3,60fd970d6c2495cd7188ebfe,19,Non-binary,Right handed,2021-07-26_20h59.25.031,MA Experiment 2,2021.1.2,Win32,30.01290555,1,8,42,3,1,,,,,
0.8407,response_1,longFoil,WRITING,DISSECTION,,,,,,CONCRETE,ENEMY,long,resources/sound/trials/audio_stim_human67.mp3,60fd970d6c2495cd7188ebfe,19,Non-binary,Right handed,2021-07-26_20h59.25.031,MA Experiment 2,2021.1.2,Win32,30.01290555,1,9,43,27,1,,,,,
1.3525,response_1,longFoil,NECKLACE,SPECIALIST,,,,,,WHISTLE,TREASURER,long,resources/sound/trials/audio_stim_comp12.mp3,60fd970d6c2495cd7188ebfe,19,Non-binary,Right handed,2021-07-26_20h59.25.031,MA Experiment 2,2021.1.2,Win32,30.01290555,1,10,44,20,1,,,,,
0.9826,response_2,,NOVEL,GYMNASTICS,,,,,,HOBBY,COLONY,short,resources/sound/catchTrials/audio_control_human_project04.mp3,60fd970d6c2495cd7188ebfe,19,Non-binary,Right handed,2021-07-26_20h59.25.031,MA Experiment 2,2021.1.2,Win32,30.01290555,,,,,,0,15,15,11,1
1.0558,response_1,shortValid,NEIGHBOUR,POLIO,,,,,,CONCRETE,ENEMY,short,resources/sound/trials/audio_stim_human67.mp3,60fd970d6c2495cd7188ebfe,19,Non-binary,Right handed,2021-07-26_20h59.25.031,MA Experiment 2,2021.1.2,Win32,30.01290555,1,11,45,10,1,,,,,
1.164,response_2,shortFoil,HARBOUR,HOSPITAL,,,,,,SACRED,GALAXY,long,resources/sound/trials/audio_stim_comp1.mp3,60fd970d6c2495cd7188ebfe,19,Non-binary,Right handed,2021-07-26_20h59.25.031,MA Experiment 2,2021.1.2,Win32,30.01290555,1,12,46,24,1,,,,,
1.0263,response_2,longFoil,KETTLE,VINEGAR,,,,,,ROBBER,RATTLESNAKE,long,resources/sound/trials/audio_stim_human64.mp3,60fd970d6c2495cd7188ebfe,19,Non-binary,Right handed,2021-07-26_20h59.25.031,MA Experiment 2,2021.1.2,Win32,30.01290555,1,13,47,32,1,,,,,
1.137,response_2,longFoil,BISHOP,EMULSION,,,,,,PARTY,SANCTUARY,short,resources/sound/trials/audio_stim_human50.mp3,60fd970d6c2495cd7188ebfe,19,Non-binary,Right handed,2021-07-26_20h59.25.031,MA Experiment 2,2021.1.2,Win32,30.01290555,1,14,48,14,1,,,,,
0.952,response_2,,WALRUS,ACROBAT,,,,,,NAVY,RECTANGLE,short,resources/sound/catchTrials/audio_control_comp_project06.mp3,60fd970d6c2495cd7188ebfe,19,Non-binary,Right handed,2021-07-26_20h59.25.031,MA Experiment 2,2021.1.2,Win32,30.01290555,,,,,,0,31,31,6,1
1.33,response_2,shortFoil,PIPING,JANITOR,,,,,,WORKER,VISITOR,long,resources/sound/trials/audio_stim_comp17.mp3,60fd970d6c2495cd7188ebfe,19,Non-binary,Right handed,2021-07-26_20h59.25.031,MA Experiment 2,2021.1.2,Win32,30.01290555,1,15,49,23,1,,,,,
1.5188,response_1,longFoil,MORNING,UMBRELLA,,,,,,ATHLETE,IVORY,long,resources/sound/trials/audio_stim_comp57.mp3,60fd970d6c2495cd7188ebfe,19,Non-binary,Right handed,2021-07-26_20h59.25.031,MA Experiment 2,2021.1.2,Win32,30.01290555,1,16,50,22,1,,,,,
1.4082,response_1,shortValid,BEETLE,INJURY,,,,,,MINER,EMERALD,long,resources/sound/trials/audio_stim_human6.mp3,60fd970d6c2495cd7188ebfe,19,Non-binary,Right handed,2021-07-26_20h59.25.031,MA Experiment 2,2021.1.2,Win32,30.01290555,1,17,51,30,1,,,,,
1.3875,response_2,longFoil,TWEEZER,SAXOPHONE,,,,,,BRAINSTORM,GREEN NEEDLE,short,resources/sound/trials/audio_stim_original.mp3,60fd970d6c2495cd7188ebfe,19,Non-binary,Right handed,2021-07-26_20h59.25.031,MA Experiment 2,2021.1.2,Win32,30.01290555,1,18,52,16,1,,,,,
0.9171,response_2,,GRADUATE,CAPITAL,,,,,,BORDER,ALGEBRA,short,resources/sound/catchTrials/audio_control_comp_project00.mp3,60fd970d6c2495cd7188ebfe,19,Non-binary,Right handed,2021-07-26_20h59.25.031,MA Experiment 2,2021.1.2,Win32,30.01290555,,,,,,0,2,2,0,1
0.898,response_2,longValid,FEVER,ANTIQUE,,,,,,MARBLE,CUSTOMER,short,resources/sound/trials/audio_stim_comp65.mp3,60fd970d6c2495cd7188ebfe,19,Non-binary,Right handed,2021-07-26_20h59.25.031,MA Experiment 2,2021.1.2,Win32,30.01290555,1,19,53,4,1,,,,,
1.0572,response_2,shortValid,CEREAL,PROFESSOR,,,,,,MINER,EMERALD,short,resources/sound/trials/audio_stim_comp6.mp3,60fd970d6c2495cd7188ebfe,19,Non-binary,Right handed,2021-07-26_20h59.25.031,MA Experiment 2,2021.1.2,Win32,30.01290555,1,20,54,1,1,,,,,
1.1628,response_2,longFoil,CHIPMUNK,INSTRUCTOR,,,,,,MINER,EMERALD,long,resources/sound/trials/audio_stim_comp6.mp3,60fd970d6c2495cd7188ebfe,19,Non-binary,Right handed,2021-07-26_20h59.25.031,MA Experiment 2,2021.1.2,Win32,30.01290555,1,21,55,18,1,,,,,
1.5076,response_1,longFoil,MOONLIGHT,ORNAMENT,,,,,,DRIZZLE,CARDINAL,long,resources/sound/trials/audio_stim_comp69.mp3,60fd970d6c2495cd7188ebfe,19,Non-binary,Right handed,2021-07-26_20h59.25.031,MA Experiment 2,2021.1.2,Win32,30.01290555,1,22,56,17,1,,,,,
0.9393,response_1,,SODA,FIREWOOD,,,,,,JUGGLER,DANDELION,short,resources/sound/catchTrials/audio_control_human_project09.mp3,60fd970d6c2495cd7188ebfe,19,Non-binary,Right handed,2021-07-26_20h59.25.031,MA Experiment 2,2021.1.2,Win32,30.01290555,,,,,,0,29,29,15,1
0.8055,response_1,shortFoil,VESSEL,INTERVIEW,,,,,,DRIZZLE,CARDINAL,short,resources/sound/trials/audio_stim_comp69.mp3,60fd970d6c2495cd7188ebfe,19,Non-binary,Right handed,2021-07-26_20h59.25.031,MA Experiment 2,2021.1.2,Win32,30.01290555,1,23,57,0,1,,,,,
1.4421,response_2,longValid,RUSTY,PROJECTOR,,,,,,RUBBER,PROPERTY,long,resources/sound/trials/audio_stim_human0.mp3,60fd970d6c2495cd7188ebfe,19,Non-binary,Right handed,2021-07-26_20h59.25.031,MA Experiment 2,2021.1.2,Win32,30.01290555,1,24,58,29,1,,,,,
1.0248,response_2,shortFoil,DOORWAY,MESSENGER,,,,,,PAINTER,VEHICLE,short,resources/sound/trials/audio_stim_human47.mp3,60fd970d6c2495cd7188ebfe,19,Non-binary,Right handed,2021-07-26_20h59.25.031,MA Experiment 2,2021.1.2,Win32,30.01290555,1,25,59,11,1,,,,,
1.0484,response_2,longValid,WINDOW,ALPHABET,,,,,,RUBBER,PROPERTY,short,resources/sound/trials/audio_stim_human0.mp3,60fd970d6c2495cd7188ebfe,19,Non-binary,Right handed,2021-07-26_20h59.25.031,MA Experiment 2,2021.1.2,Win32,30.01290555,1,26,60,12,1,,,,,
1.248,response_2,,NAPKIN,ENAMEL,,,,,,CORNER,ENGINEER,short,resources/sound/catchTrials/audio_control_human_project14.mp3,60fd970d6c2495cd7188ebfe,19,Non-binary,Right handed,2021-07-26_20h59.25.031,MA Experiment 2,2021.1.2,Win32,30.01290555,,,,,,0,9,9,10,1
0.7978,response_2,longFoil,MEASLES,HEADQUARTERS,,,,,,SACRED,GALAXY,short,resources/sound/trials/audio_stim_comp1.mp3,60fd970d6c2495cd7188ebfe,19,Non-binary,Right handed,2021-07-26_20h59.25.031,MA Experiment 2,2021.1.2,Win32,30.01290555,1,27,61,7,1,,,,,
0.9868,response_2,longFoil,MEDICINE,NEIGHBOURHOOD,,,,,,HARDWARE,OVERCOAT,short,resources/sound/trials/audio_stim_human35.mp3,60fd970d6c2495cd7188ebfe,19,Non-binary,Right handed,2021-07-26_20h59.25.031,MA Experiment 2,2021.1.2,Win32,30.01290555,1,28,62,8,1,,,,,
0.6662,response_2,longFoil,NATIVE,GALLERY,,,,,,PAINTER,VEHICLE,long,resources/sound/trials/audio_stim_human47.mp3,60fd970d6c2495cd7188ebfe,19,Non-binary,Right handed,2021-07-26_20h59.25.031,MA Experiment 2,2021.1.2,Win32,30.01290555,1,29,63,28,1,,,,,
1.142,response_2,longFoil,KERNEL,MOLECULE,,,,,,BRAINSTORM,GREEN NEEDLE,long,resources/sound/trials/audio_stim_original.mp3,60fd970d6c2495cd7188ebfe,19,Non-binary,Right handed,2021-07-26_20h59.25.031,MA Experiment 2,2021.1.2,Win32,30.01290555,1,30,64,33,1,,,,,
1.0053,response_2,,VAPOUR,ENVELOPE,,,,,,HOBBY,COLONY,long,resources/sound/catchTrials/audio_control_human_project04.mp3,60fd970d6c2495cd7188ebfe,19,Non-binary,Right handed,2021-07-26_20h59.25.031,MA Experiment 2,2021.1.2,Win32,30.01290555,,,,,,0,10,10,27,1
1.1867,response_2,shortFoil,CANTEEN,GOVERNMENT,,,,,,HARDWARE,OVERCOAT,long,resources/sound/trials/audio_stim_human35.mp3,60fd970d6c2495cd7188ebfe,19,Non-binary,Right handed,2021-07-26_20h59.25.031,MA Experiment 2,2021.1.2,Win32,30.01290555,1,31,65,25,1,,,,,
0.9651,response_2,longValid,SULPHUR,FISHERMAN,,,,,,RECEIPT,LIMOUSINE,short,resources/sound/trials/audio_stim_comp40.mp3,60fd970d6c2495cd7188ebfe,19,Non-binary,Right handed,2021-07-26_20h59.25.031,MA Experiment 2,2021.1.2,Win32,30.01290555,1,32,66,2,1,,,,,
1.477,response_1,shortFoil,PICTURE,CITIZEN,,,,,,ATHLETE,IVORY,short,resources/sound/trials/audio_stim_comp57.mp3,60fd970d6c2495cd7188ebfe,19,Non-binary,Right handed,2021-07-26_20h59.25.031,MA Experiment 2,2021.1.2,Win32,30.01290555,1,33,67,5,1,,,,,
0.7354,response_1,longFoil,SINGER,ADMIRAL,,,,,,ATHLETE,IVORY,short,resources/sound/trials/audio_stim_comp57.mp3,60fd970d6c2495cd7188ebfe,19,Non-binary,Right handed,2021-07-26_20h59.25.031,MA Experiment 2,2021.1.2,Win32,30.01290555,2,0,68,5,1,,,,,
0.6009,response_2,shortFoil,WIRE,SPECIALIST,,,,,,BRAINSTORM,GREEN NEEDLE,long,resources/sound/trials/audio_stim_original.mp3,60fd970d6c2495cd7188ebfe,19,Non-binary,Right handed,2021-07-26_20h59.25.031,MA Experiment 2,2021.1.2,Win32,30.01290555,2,1,69,33,1,,,,,
1.0116,response_1,shortFoil,DIVING,CINNAMON,,,,,,DAYLIGHT,MATERIAL,short,resources/sound/trials/audio_stim_human42.mp3,60fd970d6c2495cd7188ebfe,19,Non-binary,Right handed,2021-07-26_20h59.25.031,MA Experiment 2,2021.1.2,Win32,30.01290555,2,2,70,9,1,,,,,
1.0647,response_2,,HAMSTER,APPLIANCE,,,,,,IRIS,VIOLIN,long,resources/sound/catchTrials/audio_control_comp_project12.mp3,60fd970d6c2495cd7188ebfe,19,Non-binary,Right handed,2021-07-26_20h59.25.031,MA Experiment 2,2021.1.2,Win32,30.01290555,,,,,,0,24,24,20,1
1.3154,response_1,shortFoil,BURNER,ORNAMENT,,,,,,DAYLIGHT,MATERIAL,long,resources/sound/trials/audio_stim_human42.mp3,60fd970d6c2495cd7188ebfe,19,Non-binary,Right handed,2021-07-26_20h59.25.031,MA Experiment 2,2021.1.2,Win32,30.01290555,2,3,71,26,1,,,,,
0.7494,response_1,longFoil,SULPHUR,ABDOMEN,,,,,,DRIZZLE,CARDINAL,short,resources/sound/trials/audio_stim_comp69.mp3,60fd970d6c2495cd7188ebfe,19,Non-binary,Right handed,2021-07-26_20h59.25.031,MA Experiment 2,2021.1.2,Win32,30.01290555,2,4,72,0,1,,,,,
1.2722,response_1,longValid,MURAL,CANDLELIGHT,,,,,,ATHLETE,IVORY,long,resources/sound/trials/audio_stim_comp57.mp3,60fd970d6c2495cd7188ebfe,19,Non-binary,Right handed,2021-07-26_20h59.25.031,MA Experiment 2,2021.1.2,Win32,30.01290555,2,5,73,22,1,,,,,
1.0052,response_1,shortValid,HARBOUR,CAMERA,,,,,,PAINTER,VEHICLE,long,resources/sound/trials/audio_stim_human47.mp3,60fd970d6c2495cd7188ebfe,19,Non-binary,Right handed,2021-07-26_20h59.25.031,MA Experiment 2,2021.1.2,Win32,30.01290555,2,6,74,28,1,,,,,
1.0665,response_1,,DUEL,HANDKERCHIEF,,,,,,VIOLET,LUBRICANT,short,resources/sound/catchTrials/audio_control_human_project07.mp3,60fd970d6c2495cd7188ebfe,19,Non-binary,Right handed,2021-07-26_20h59.25.031,MA Experiment 2,2021.1.2,Win32,30.01290555,,,,,,0,23,23,12,1
0.7804,response_2,longValid,FEVER,VINEGAR,,,,,,PARTY,SANCTUARY,long,resources/sound/trials/audio_stim_human50.mp3,60fd970d6c2495cd7188ebfe,19,Non-binary,Right handed,2021-07-26_20h59.25.031,MA Experiment 2,2021.1.2,Win32,30.01290555,2,7,75,31,1,,,,,
0.9546,response_2,shortFoil,NURSERY,ALCOHOL,,,,,,MARBLE,CUSTOMER,short,resources/sound/trials/audio_stim_comp65.mp3,60fd970d6c2495cd7188ebfe,19,Non-binary,Right handed,2021-07-26_20h59.25.031,MA Experiment 2,2021.1.2,Win32,30.01290555,2,8,76,4,1,,,,,
1.0495,response_2,longValid,OFFICE,MICROSCOPE,,,,,,MARBLE,CUSTOMER,long,resources/sound/trials/audio_stim_comp65.mp3,60fd970d6c2495cd7188ebfe,19,Non-binary,Right handed,2021-07-26_20h59.25.031,MA Experiment 2,2021.1.2,Win32,30.01290555,2,9,77,21,1,,,,,
1.63,response_1,shortFoil,DIAL,INSTRUCTOR,,,,,,WHISTLE,TREASURER,short,resources/sound/trials/audio_stim_comp12.mp3,60fd970d6c2495cd7188ebfe,19,Non-binary,Right handed,2021-07-26_20h59.25.031,MA Experiment 2,2021.1.2,Win32,30.01290555,2,10,78,3,1,,,,,
1.1152,response_2,,MORNING,HEADQUARTERS,,,,,,CORNER,ENGINEER,long,resources/sound/catchTrials/audio_control_comp_project14.mp3,60fd970d6c2495cd7188ebfe,19,Non-binary,Right handed,2021-07-26_20h59.25.031,MA Experiment 2,2021.1.2,Win32,30.01290555,,,,,,0,21,21,17,1
1.0653,response_2,longValid,MURDER,HURRICANE,,,,,,WORKER,VISITOR,long,resources/sound/trials/audio_stim_comp17.mp3,60fd970d6c2495cd7188ebfe,19,Non-binary,Right handed,2021-07-26_20h59.25.031,MA Experiment 2,2021.1.2,Win32,30.01290555,2,11,79,23,1,,,,,
0.9084,response_2,longValid,TORTURE,HOSPITAL,,,,,,RECEIPT,LIMOUSINE,long,resources/sound/trials/audio_stim_comp40.mp3,60fd970d6c2495cd7188ebfe,19,Non-binary,Right handed,2021-07-26_20h59.25.031,MA Experiment 2,2021.1.2,Win32,30.01290555,2,12,80,19,1,,,,,
0.7512,response_2,longValid,OLIVE,RETAILER,,,,,,MINER,EMERALD,short,resources/sound/trials/audio_stim_human6.mp3,60fd970d6c2495cd7188ebfe,19,Non-binary,Right handed,2021-07-26_20h59.25.031,MA Experiment 2,2021.1.2,Win32,30.01290555,2,13,81,13,1,,,,,
0.9106,response_2,shortFoil,MEDICINE,INJURY,,,,,,MINER,EMERALD,long,resources/sound/trials/audio_stim_comp6.mp3,60fd970d6c2495cd7188ebfe,19,Non-binary,Right handed,2021-07-26_20h59.25.031,MA Experiment 2,2021.1.2,Win32,30.01290555,2,14,82,18,1,,,,,
1.1079,response_2,,DWELLER,POLICEMAN,,,,,,IRIS,VIOLIN,short,resources/sound/catchTrials/audio_control_human_project12.mp3,60fd970d6c2495cd7188ebfe,19,Non-binary,Right handed,2021-07-26_20h59.25.031,MA Experiment 2,2021.1.2,Win32,30.01290555,,,,,,0,22,22,8,1
1.097,response_2,shortFoil,WINDOW,LEMONADE,,,,,,BRAINSTORM,GREEN NEEDLE,short,resources/sound/trials/audio_stim_original.mp3,60fd970d6c2495cd7188ebfe,19,Non-binary,Right handed,2021-07-26_20h59.25.031,MA Experiment 2,2021.1.2,Win32,30.01290555,2,15,83,16,1,,,,,
0.9828,response_1,shortFoil,PICTURE,CITIZEN,,,,,,DRIZZLE,CARDINAL,long,resources/sound/trials/audio_stim_comp69.mp3,60fd970d6c2495cd7188ebfe,19,Non-binary,Right handed,2021-07-26_20h59.25.031,MA Experiment 2,2021.1.2,Win32,30.01290555,2,16,84,17,1,,,,,
0.8232,response_1,shortFoil,TWEEZER,MECHANIC,,,,,,CONCRETE,ENEMY,short,resources/sound/trials/audio_stim_human67.mp3,60fd970d6c2495cd7188ebfe,19,Non-binary,Right handed,2021-07-26_20h59.25.031,MA Experiment 2,2021.1.2,Win32,30.01290555,2,17,85,10,1,,,,,
1.1634,response_2,shortFoil,FOREARM,INSTRUMENT,,,,,,RUBBER,PROPERTY,long,resources/sound/trials/audio_stim_human0.mp3,60fd970d6c2495cd7188ebfe,19,Non-binary,Right handed,2021-07-26_20h59.25.031,MA Experiment 2,2021.1.2,Win32,30.01290555,2,18,86,29,1,,,,,
0.9305,response_2,,BISHOP,MESSENGER,,,,,,IRIS,VIOLIN,long,resources/sound/catchTrials/audio_control_human_project12.mp3,60fd970d6c2495cd7188ebfe,19,Non-binary,Right handed,2021-07-26_20h59.25.031,MA Experiment 2,2021.1.2,Win32,30.01290555,,,,,,0,19,19,24,1
1.4326,response_2,shortFoil,MEASLES,CLARINET,,,,,,HARDWARE,OVERCOAT,short,resources/sound/trials/audio_stim_human35.mp3,60fd970d6c2495cd7188ebfe,19,Non-binary,Right handed,2021-07-26_20h59.25.031,MA Experiment 2,2021.1.2,Win32,30.01290555,2,19,87,8,1,,,,,
1.3777,response_2,longFoil,CIGAR,ENVELOPE,,,,,,MINER,EMERALD,long,resources/sound/trials/audio_stim_human6.mp3,60fd970d6c2495cd7188ebfe,19,Non-binary,Right handed,2021-07-26_20h59.25.031,MA Experiment 2,2021.1.2,Win32,30.01290555,2,20,88,30,1,,,,,
0.9335,response_2,shortValid,TEMPLE,ICICLE,,,,,,SACRED,GALAXY,long,resources/sound/trials/audio_stim_comp1.mp3,60fd970d6c2495cd7188ebfe,19,Non-binary,Right handed,2021-07-26_20h59.25.031,MA Experiment 2,2021.1.2,Win32,30.01290555,2,21,89,24,1,,,,,
1.094,response_2,shortFoil,PIANO,CROCODILE,,,,,,PARTY,SANCTUARY,short,resources/sound/trials/audio_stim_human50.mp3,60fd970d6c2495cd7188ebfe,19,Non-binary,Right handed,2021-07-26_20h59.25.031,MA Experiment 2,2021.1.2,Win32,30.01290555,2,22,90,14,1,,,,,
0.7647,response_2,,SHOULDER,FIREWOOD,,,,,,NAVY,RECTANGLE,short,resources/sound/catchTrials/audio_control_human_project06.mp3,60fd970d6c2495cd7188ebfe,19,Non-binary,Right handed,2021-07-26_20h59.25.031,MA Experiment 2,2021.1.2,Win32,30.01290555,,,,,,0,6,6,14,1
0.9819,response_1,longValid,LEADER,MOLECULE,,,,,,WHISTLE,TREASURER,long,resources/sound/trials/audio_stim_comp12.mp3,60fd970d6c2495cd7188ebfe,19,Non-binary,Right handed,2021-07-26_20h59.25.031,MA Experiment 2,2021.1.2,Win32,30.01290555,2,23,91,20,1,,,,,
1.0945,response_2,shortFoil,TUMBLE,ADMIRAL,,,,,,SACRED,GALAXY,short,resources/sound/trials/audio_stim_comp1.mp3,60fd970d6c2495cd7188ebfe,19,Non-binary,Right handed,2021-07-26_20h59.25.031,MA Experiment 2,2021.1.2,Win32,30.01290555,2,24,92,7,1,,,,,
0.958,response_2,shortFoil,SCOOTER,INFECTION,,,,,,RUBBER,PROPERTY,short,resources/sound/trials/audio_stim_human0.mp3,60fd970d6c2495cd7188ebfe,19,Non-binary,Right handed,2021-07-26_20h59.25.031,MA Experiment 2,2021.1.2,Win32,30.01290555,2,25,93,12,1,,,,,
1.1643,response_2,shortFoil,INVOICE,INSTITUTE,,,,,,RECEIPT,LIMOUSINE,short,resources/sound/trials/audio_stim_comp40.mp3,60fd970d6c2495cd7188ebfe,19,Non-binary,Right handed,2021-07-26_20h59.25.031,MA Experiment 2,2021.1.2,Win32,30.01290555,2,26,94,2,1,,,,,
1.633,response_2,,FAIRY,FISHERMAN,,,,,,CORNER,ENGINEER,short,resources/sound/catchTrials/audio_control_comp_project14.mp3,60fd970d6c2495cd7188ebfe,19,Non-binary,Right handed,2021-07-26_20h59.25.031,MA Experiment 2,2021.1.2,Win32,30.01290555,,,,,,0,27,27,1,1
0.7781,response_1,shortValid,PERSON,PROPELLER,,,,,,CONCRETE,ENEMY,long,resources/sound/trials/audio_stim_human67.mp3,60fd970d6c2495cd7188ebfe,19,Non-binary,Right handed,2021-07-26_20h59.25.031,MA Experiment 2,2021.1.2,Win32,30.01290555,2,27,95,27,1,,,,,
0.8959,response_2,longFoil,MOONLIGHT,OPENING,,,,,,HARDWARE,OVERCOAT,long,resources/sound/trials/audio_stim_human35.mp3,60fd970d6c2495cd7188ebfe,19,Non-binary,Right handed,2021-07-26_20h59.25.031,MA Experiment 2,2021.1.2,Win32,30.01290555,2,28,96,25,1,,,,,
0.7779,response_2,longFoil,GRADUATE,GRASSHOPPER,,,,,,PAINTER,VEHICLE,short,resources/sound/trials/audio_stim_human47.mp3,60fd970d6c2495cd7188ebfe,19,Non-binary,Right handed,2021-07-26_20h59.25.031,MA Experiment 2,2021.1.2,Win32,30.01290555,2,29,97,11,1,,,,,
0.874,response_2,shortFoil,SADDLE,CORRIDOR,,,,,,WORKER,VISITOR,short,resources/sound/trials/audio_stim_comp17.mp3,60fd970d6c2495cd7188ebfe,19,Non-binary,Right handed,2021-07-26_20h59.25.031,MA Experiment 2,2021.1.2,Win32,30.01290555,2,30,98,6,1,,,,,
0.7331,response_2,,JURY,REFEREE,,,,,,CORNER,ENGINEER,long,resources/sound/catchTrials/audio_control_human_project14.mp3,60fd970d6c2495cd7188ebfe,19,Non-binary,Right handed,2021-07-26_20h59.25.031,MA Experiment 2,2021.1.2,Win32,30.01290555,,,,,,0,3,3,26,1
1.2874,response_2,shortFoil,STATION,SETTLEMENT,,,,,,MINER,EMERALD,short,resources/sound/trials/audio_stim_comp6.mp3,60fd970d6c2495cd7188ebfe,19,Non-binary,Right handed,2021-07-26_20h59.25.031,MA Experiment 2,2021.1.2,Win32,30.01290555,2,31,99,1,1,,,,,
0.7577,response_2,longValid,SEGMENT,MERCURY,,,,,,ROBBER,RATTLESNAKE,long,resources/sound/trials/audio_stim_human64.mp3,60fd970d6c2495cd7188ebfe,19,Non-binary,Right handed,2021-07-26_20h59.25.031,MA Experiment 2,2021.1.2,Win32,30.01290555,2,32,100,32,1,,,,,
0.8898,response_2,shortValid,PRINCESS,GORILLA,,,,,,ROBBER,RATTLESNAKE,short,resources/sound/trials/audio_stim_human64.mp3,60fd970d6c2495cd7188ebfe,19,Non-binary,Right handed,2021-07-26_20h59.25.031,MA Experiment 2,2021.1.2,Win32,30.01290555,2,33,101,15,1,,,,,
0.7959,response_2,longValid,TRAITOR,POLIO,,,,,,WORKER,VISITOR,short,resources/sound/trials/audio_stim_comp17.mp3,60fd970d6c2495cd7188ebfe,19,Non-binary,Right handed,2021-07-26_20h59.25.031,MA Experiment 2,2021.1.2,Win32,30.01290555,3,0,102,6,1,,,,,
1.4612,response_1,shortValid,MISTRESS,SAXOPHONE,,,,,,DAYLIGHT,MATERIAL,short,resources/sound/trials/audio_stim_human42.mp3,60fd970d6c2495cd7188ebfe,19,Non-binary,Right handed,2021-07-26_20h59.25.031,MA Experiment 2,2021.1.2,Win32,30.01290555,3,1,103,9,1,,,,,
1.0869,response_2,shortValid,KERNEL,UMBRELLA,,,,,,WORKER,VISITOR,long,resources/sound/trials/audio_stim_comp17.mp3,60fd970d6c2495cd7188ebfe,19,Non-binary,Right handed,2021-07-26_20h59.25.031,MA Experiment 2,2021.1.2,Win32,30.01290555,3,2,104,23,1,,,,,
1.0405,response_2,,POLO,PROJECTOR,,,,,,ICY,JITTERBUG,long,resources/sound/catchTrials/audio_control_comp_project08.mp3,60fd970d6c2495cd7188ebfe,19,Non-binary,Right handed,2021-07-26_20h59.25.031,MA Experiment 2,2021.1.2,Win32,30.01290555,,,,,,0,0,0,23,1
0.8474,response_2,shortValid,RABBI,FACTORY,,,,,,MINER,EMERALD,short,resources/sound/trials/audio_stim_human6.mp3,60fd970d6c2495cd7188ebfe,19,Non-binary,Right handed,2021-07-26_20h59.25.031,MA Experiment 2,2021.1.2,Win32,30.01290555,3,3,105,13,1,,,,,
1.3015,response_2,longFoil,DECOY,HONEYMOON,,,,,,RECEIPT,LIMOUSINE,short,resources/sound/trials/audio_stim_comp40.mp3,60fd970d6c2495cd7188ebfe,19,Non-binary,Right handed,2021-07-26_20h59.25.031,MA Experiment 2,2021.1.2,Win32,30.01290555,3,4,106,2,1,,,,,
0.8039,response_1,longValid,LIGHTNING,CABINET,,,,,,DRIZZLE,CARDINAL,long,resources/sound/trials/audio_stim_comp69.mp3,60fd970d6c2495cd7188ebfe,19,Non-binary,Right handed,2021-07-26_20h59.25.031,MA Experiment 2,2021.1.2,Win32,30.01290555,3,5,107,17,1,,,,,
1.0879,response_2,longFoil,HURDLE,NEIGHBOURHOOD,,,,,,CONCRETE,ENEMY,short,resources/sound/trials/audio_stim_human67.mp3,60fd970d6c2495cd7188ebfe,19,Non-binary,Right handed,2021-07-26_20h59.25.031,MA Experiment 2,2021.1.2,Win32,30.01290555,3,6,108,10,1,,,,,
1.0662,response_2,,VESSEL,COMMITTEE,,,,,,BORDER,ALGEBRA,long,resources/sound/catchTrials/audio_control_comp_project00.mp3,60fd970d6c2495cd7188ebfe,19,Non-binary,Right handed,2021-07-26_20h59.25.031,MA Experiment 2,2021.1.2,Win32,30.01290555,,,,,,0,12,12,16,1
1.6952,response_1,longFoil,WRITING,MINERAL,,,,,,WHISTLE,TREASURER,short,resources/sound/trials/audio_stim_comp12.mp3,60fd970d6c2495cd7188ebfe,19,Non-binary,Right handed,2021-07-26_20h59.25.031,MA Experiment 2,2021.1.2,Win32,30.01290555,3,7,109,3,1,,,,,
1.6639,response_2,longValid,CABIN,CATHEDRAL,,,,,,BRAINSTORM,GREEN NEEDLE,short,resources/sound/trials/audio_stim_original.mp3,60fd970d6c2495cd7188ebfe,19,Non-binary,Right handed,2021-07-26_20h59.25.031,MA Experiment 2,2021.1.2,Win32,30.01290555,3,8,110,16,1,,,,,
0.7332,response_2,longValid,CHIPMUNK,DESTROYER,,,,,,ATHLETE,IVORY,short,resources/sound/trials/audio_stim_comp57.mp3,60fd970d6c2495cd7188ebfe,19,Non-binary,Right handed,2021-07-26_20h59.25.031,MA Experiment 2,2021.1.2,Win32,30.01290555,3,9,111,5,1,,,,,
0.9424,response_2,shortValid,FATHER,CONVENTION,,,,,,HARDWARE,OVERCOAT,long,resources/sound/trials/audio_stim_human35.mp3,60fd970d6c2495cd7188ebfe,19,Non-binary,Right handed,2021-07-26_20h59.25.031,MA Experiment 2,2021.1.2,Win32,30.01290555,3,10,112,25,1,,,,,
0.9839,response_2,,SODA,JANITOR,,,,,,ICY,JITTERBUG,short,resources/sound/catchTrials/audio_control_comp_project08.mp3,60fd970d6c2495cd7188ebfe,19,Non-binary,Right handed,2021-07-26_20h59.25.031,MA Experiment 2,2021.1.2,Win32,30.01290555,,,,,,0,1,1,7,1
0.8454,response_2,longValid,PODIUM,DISSECTION,,,,,,MINER,EMERALD,short,resources/sound/trials/audio_stim_comp6.mp3,60fd970d6c2495cd7188ebfe,19,Non-binary,Right handed,2021-07-26_20h59.25.031,MA Experiment 2,2021.1.2,Win32,30.01290555,3,11,113,1,1,,,,,
1.0839,response_1,shortFoil,DOORWAY,INTERVIEW,,,,,,CONCRETE,ENEMY,long,resources/sound/trials/audio_stim_human67.mp3,60fd970d6c2495cd7188ebfe,19,Non-binary,Right handed,2021-07-26_20h59.25.031,MA Experiment 2,2021.1.2,Win32,30.01290555,3,12,114,27,1,,,,,
1.2376,response_2,shortValid,KENNEL,OXYGEN,,,,,,HARDWARE,OVERCOAT,short,resources/sound/trials/audio_stim_human35.mp3,60fd970d6c2495cd7188ebfe,19,Non-binary,Right handed,2021-07-26_20h59.25.031,MA Experiment 2,2021.1.2,Win32,30.01290555,3,13,115,8,1,,,,,
1.3409,response_2,shortValid,STOCKING,ACROBAT,,,,,,MINER,EMERALD,long,resources/sound/trials/audio_stim_comp6.mp3,60fd970d6c2495cd7188ebfe,19,Non-binary,Right handed,2021-07-26_20h59.25.031,MA Experiment 2,2021.1.2,Win32,30.01290555,3,14,116,18,1,,,,,
0.7998,response_1,,CANTEEN,MINISTER,,,,,,VIOLET,LUBRICANT,long,resources/sound/catchTrials/audio_control_human_project07.mp3,60fd970d6c2495cd7188ebfe,19,Non-binary,Right handed,2021-07-26_20h59.25.031,MA Experiment 2,2021.1.2,Win32,30.01290555,,,,,,0,17,17,28,1
0.9628,response_2,shortValid,VALLEY,STRAWBERRY,,,,,,PARTY,SANCTUARY,short,resources/sound/trials/audio_stim_human50.mp3,60fd970d6c2495cd7188ebfe,19,Non-binary,Right handed,2021-07-26_20h59.25.031,MA Experiment 2,2021.1.2,Win32,30.01290555,3,15,117,14,1,,,,,
1.0224,response_2,shortFoil,NOVEL,LECTURER,,,,,,ATHLETE,IVORY,long,resources/sound/trials/audio_stim_comp57.mp3,60fd970d6c2495cd7188ebfe,19,Non-binary,Right handed,2021-07-26_20h59.25.031,MA Experiment 2,2021.1.2,Win32,30.01290555,3,16,118,22,1,,,,,
1.0021,response_2,shortFoil,FERTILE,GINGERBREAD,,,,,,PARTY,SANCTUARY,long,resources/sound/trials/audio_stim_human50.mp3,60fd970d6c2495cd7188ebfe,19,Non-binary,Right handed,2021-07-26_20h59.25.031,MA Experiment 2,2021.1.2,Win32,30.01290555,3,17,119,31,1,,,,,
1.5591,response_1,shortValid,WALRUS,ALPHABET,,,,,,WHISTLE,TREASURER,long,resources/sound/trials/audio_stim_comp12.mp3,60fd970d6c2495cd7188ebfe,19,Non-binary,Right handed,2021-07-26_20h59.25.031,MA Experiment 2,2021.1.2,Win32,30.01290555,3,18,120,20,1,,,,,
0.9394,response_2,,RUSTY,HEROIN,,,,,,IRIS,VIOLIN,short,resources/sound/catchTrials/audio_control_comp_project12.mp3,60fd970d6c2495cd7188ebfe,19,Non-binary,Right handed,2021-07-26_20h59.25.031,MA Experiment 2,2021.1.2,Win32,30.01290555,,,,,,0,20,20,4,1
0.8514,response_2,shortValid,CEREAL,NEWSPAPER,,,,,,ROBBER,RATTLESNAKE,long,resources/sound/trials/audio_stim_human64.mp3,60fd970d6c2495cd7188ebfe,19,Non-binary,Right handed,2021-07-26_20h59.25.031,MA Experiment 2,2021.1.2,Win32,30.01290555,3,19,121,32,1,,,,,
0.8732,response_2,shortFoil,LOBSTER,ANTIQUE,,,,,,MINER,EMERALD,long,resources/sound/trials/audio_stim_human6.mp3,60fd970d6c2495cd7188ebfe,19,Non-binary,Right handed,2021-07-26_20h59.25.031,MA Experiment 2,2021.1.2,Win32,30.01290555,3,20,122,30,1,,,,,
1.0079,response_1,longFoil,SINGER,GALLERY,,,,,,RUBBER,PROPERTY,short,resources/sound/trials/audio_stim_human0.mp3,60fd970d6c2495cd7188ebfe,19,Non-binary,Right handed,2021-07-26_20h59.25.031,MA Experiment 2,2021.1.2,Win32,30.01290555,3,21,123,12,1,,,,,
1.1992,response_2,longFoil,CRYSTAL,ASBESTOS,,,,,,SACRED,GALAXY,long,resources/sound/trials/audio_stim_comp1.mp3,60fd970d6c2495cd7188ebfe,19,Non-binary,Right handed,2021-07-26_20h59.25.031,MA Experiment 2,2021.1.2,Win32,30.01290555,3,22,124,24,1,,,,,
0.9631,response_2,,LIQUID,AMBULANCE,,,,,,NAVY,RECTANGLE,long,resources/sound/catchTrials/audio_control_human_project06.mp3,60fd970d6c2495cd7188ebfe,19,Non-binary,Right handed,2021-07-26_20h59.25.031,MA Experiment 2,2021.1.2,Win32,30.01290555,,,,,,0,4,4,30,1
1.2649,response_2,longValid,HAMMER,ATHLETICS,,,,,,PAINTER,VEHICLE,short,resources/sound/trials/audio_stim_human47.mp3,60fd970d6c2495cd7188ebfe,19,Non-binary,Right handed,2021-07-26_20h59.25.031,MA Experiment 2,2021.1.2,Win32,30.01290555,3,23,125,11,1,,,,,
0.9653,response_2,shortFoil,BUTTER,ATTENDANT,,,,,,PAINTER,VEHICLE,long,resources/sound/trials/audio_stim_human47.mp3,60fd970d6c2495cd7188ebfe,19,Non-binary,Right handed,2021-07-26_20h59.25.031,MA Experiment 2,2021.1.2,Win32,30.01290555,3,24,126,28,1,,,,,
0.9866,response_1,longValid,VILLAGE,POTATO,,,,,,DAYLIGHT,MATERIAL,long,resources/sound/trials/audio_stim_human42.mp3,60fd970d6c2495cd7188ebfe,19,Non-binary,Right handed,2021-07-26_20h59.25.031,MA Experiment 2,2021.1.2,Win32,30.01290555,3,25,127,26,1,,,,,
0.9625,response_2,shortFoil,WAFER,TANGERINE,,,,,,ROBBER,RATTLESNAKE,short,resources/sound/trials/audio_stim_human64.mp3,60fd970d6c2495cd7188ebfe,19,Non-binary,Right handed,2021-07-26_20h59.25.031,MA Experiment 2,2021.1.2,Win32,30.01290555,3,26,128,15,1,,,,,
0.8043,response_2,,SHEEPSKIN,EMULSION,,,,,,JOURNAL,ROBBERY,long,resources/sound/catchTrials/audio_control_human_project02.mp3,60fd970d6c2495cd7188ebfe,19,Non-binary,Right handed,2021-07-26_20h59.25.031,MA Experiment 2,2021.1.2,Win32,30.01290555,,,,,,0,5,5,29,1
1.0503,response_2,longFoil,INCOME,CARNATION,,,,,,MARBLE,CUSTOMER,long,resources/sound/trials/audio_stim_comp65.mp3,60fd970d6c2495cd7188ebfe,19,Non-binary,Right handed,2021-07-26_20h59.25.031,MA Experiment 2,2021.1.2,Win32,30.01290555,3,27,129,21,1,,,,,
0.9569,response_2,longFoil,CAPTAIN,BUTTERFLY,,,,,,RECEIPT,LIMOUSINE,long,resources/sound/trials/audio_stim_comp40.mp3,60fd970d6c2495cd7188ebfe,19,Non-binary,Right handed,2021-07-26_20h59.25.031,MA Experiment 2,2021.1.2,Win32,30.01290555,3,28,130,19,1,,,,,
0.7773,response_2,longFoil,DANCER,PHYSICIAN,,,,,,RUBBER,PROPERTY,long,resources/sound/trials/audio_stim_human0.mp3,60fd970d6c2495cd7188ebfe,19,Non-binary,Right handed,2021-07-26_20h59.25.031,MA Experiment 2,2021.1.2,Win32,30.01290555,3,29,131,29,1,,,,,
1.6833,response_2,shortValid,MUSCLE,FAMILY,,,,,,SACRED,GALAXY,short,resources/sound/trials/audio_stim_comp1.mp3,60fd970d6c2495cd7188ebfe,19,Non-binary,Right handed,2021-07-26_20h59.25.031,MA Experiment 2,2021.1.2,Win32,30.01290555,3,30,132,7,1,,,,,
1.2037,response_1,,ACRE,CAPITAL,,,,,,POISON,REVOLVER,long,resources/sound/catchTrials/audio_control_human_project01.mp3,60fd970d6c2495cd7188ebfe,19,Non-binary,Right handed,2021-07-26_20h59.25.031,MA Experiment 2,2021.1.2,Win32,30.01290555,,,,,,0,25,25,25,1
0.6654,response_2,longFoil,BEETLE,PROFESSOR,,,,,,MARBLE,CUSTOMER,short,resources/sound/trials/audio_stim_comp65.mp3,60fd970d6c2495cd7188ebfe,19,Non-binary,Right handed,2021-07-26_20h59.25.031,MA Experiment 2,2021.1.2,Win32,30.01290555,3,31,133,4,1,,,,,
1.2307,response_1,longValid,UNCLE,CHOCOLATE,,,,,,DRIZZLE,CARDINAL,short,resources/sound/trials/audio_stim_comp69.mp3,60fd970d6c2495cd7188ebfe,19,Non-binary,Right handed,2021-07-26_20h59.25.031,MA Experiment 2,2021.1.2,Win32,30.01290555,3,32,134,0,1,,,,,
1.1843,response_2,longValid,NECKLACE,MONUMENT,,,,,,BRAINSTORM,GREEN NEEDLE,long,resources/sound/trials/audio_stim_original.mp3,60fd970d6c2495cd7188ebfe,19,Non-binary,Right handed,2021-07-26_20h59.25.031,MA Experiment 2,2021.1.2,Win32,30.01290555,3,33,135,33,1,,,,,
