response.time,response,cueTarget,rand_foil_1,rand_foil_2,prac_trials.thisRepN,prac_trials.thisTrialN,prac_trials.thisN,prac_trials.thisIndex,prac_trials.ran,word_1,word_2,cue,file_path,participant,age,gender,handedness,date,expName,psychopyVersion,OS,frameRate,trials.thisRepN,trials.thisTrialN,trials.thisN,trials.thisIndex,trials.ran,catchTrials.thisRepN,catchTrials.thisTrialN,catchTrials.thisN,catchTrials.thisIndex,catchTrials.ran
,,shortFoil,MURAL,REFEREE,0,0,0,1,1,CABLE,REPUBLIC,short,resources/sound/prac_trials/practice_cue_human1.mp3,60fd295a26f11be0bcb4b13a,25,Female,Right handed,2021-07-27_16h29.27.286,MA Experiment 2,2021.1.2,MacIntel,29.95805872,,,,,,,,,,
1.695,response_2,longFoil,POLO,STRAWBERRY,0,1,1,9,1,GRUMPY,LABYRINTH,long,resources/sound/prac_trials/practice_cue_human9.mp3,60fd295a26f11be0bcb4b13a,25,Female,Right handed,2021-07-27_16h29.27.286,MA Experiment 2,2021.1.2,MacIntel,29.95805872,,,,,,,,,,
1.685,response_2,shortFoil,NATIVE,ADMIRAL,0,2,2,3,1,EAGER,QUALIFY,short,resources/sound/prac_trials/practice_cue_human3.mp3,60fd295a26f11be0bcb4b13a,25,Female,Right handed,2021-07-27_16h29.27.286,MA Experiment 2,2021.1.2,MacIntel,29.95805872,,,,,,,,,,
1.489,response_2,longValid,HARBOUR,ASBESTOS,0,3,3,4,1,FIZZY,ELECTRIC,short,resources/sound/prac_trials/practice_cue4.mp3,60fd295a26f11be0bcb4b13a,25,Female,Right handed,2021-07-27_16h29.27.286,MA Experiment 2,2021.1.2,MacIntel,29.95805872,,,,,,,,,,
1.848,response_1,longFoil,KETTLE,PHYSICIAN,0,4,4,8,1,DAGGER,EMPHASIS,long,resources/sound/prac_trials/practice_cue8.mp3,60fd295a26f11be0bcb4b13a,25,Female,Right handed,2021-07-27_16h29.27.286,MA Experiment 2,2021.1.2,MacIntel,29.95805872,,,,,,,,,,
1.759,response_2,longFoil,CURFEW,GRASSHOPPER,0,5,5,7,1,BUCKLE,WALLABY,long,resources/sound/prac_trials/practice_cue_human7.mp3,60fd295a26f11be0bcb4b13a,25,Female,Right handed,2021-07-27_16h29.27.286,MA Experiment 2,2021.1.2,MacIntel,29.95805872,,,,,,,,,,
1.531,response_2,shortFoil,VAPOUR,CAMERA,0,6,6,5,1,NONSENSE,OASIS,short,resources/sound/prac_trials/practice_cue_human5.mp3,60fd295a26f11be0bcb4b13a,25,Female,Right handed,2021-07-27_16h29.27.286,MA Experiment 2,2021.1.2,MacIntel,29.95805872,,,,,,,,,,
2.649,response_4,longFoil,NEIGHBOUR,FURNITURE,0,7,7,0,1,AARDVARK,FALLACY,short,resources/sound/prac_trials/practice_cue0.mp3,60fd295a26f11be0bcb4b13a,25,Female,Right handed,2021-07-27_16h29.27.286,MA Experiment 2,2021.1.2,MacIntel,29.95805872,,,,,,,,,,
0.662,response_2,longValid,VESSEL,INFECTION,0,8,8,6,1,VACANT,SALVATION,long,resources/sound/prac_trials/practice_cue6.mp3,60fd295a26f11be0bcb4b13a,25,Female,Right handed,2021-07-27_16h29.27.286,MA Experiment 2,2021.1.2,MacIntel,29.95805872,,,,,,,,,,
1.365,response_1,longFoil,HAMSTER,DESTROYER,0,9,9,11,1,KETCHUP,GONDOLA,long,resources/sound/prac_trials/practice_cue_human11.mp3,60fd295a26f11be0bcb4b13a,25,Female,Right handed,2021-07-27_16h29.27.286,MA Experiment 2,2021.1.2,MacIntel,29.95805872,,,,,,,,,,
1.012,response_1,longFoil,DOORWAY,NEWSPAPER,0,10,10,10,1,SAFFRON,JAVELIN,long,resources/sound/prac_trials/practice_cue10.mp3,60fd295a26f11be0bcb4b13a,25,Female,Right handed,2021-07-27_16h29.27.286,MA Experiment 2,2021.1.2,MacIntel,29.95805872,,,,,,,,,,
2.014,response_2,longFoil,BISHOP,CITIZEN,0,11,11,2,1,RECENT,TOBACCO,short,resources/sound/prac_trials/practice_cue2.mp3,60fd295a26f11be0bcb4b13a,25,Female,Right handed,2021-07-27_16h29.27.286,MA Experiment 2,2021.1.2,MacIntel,29.95805872,,,,,,,,,,
1.495,response_2,longFoil,NAPKIN,OXYGEN,,,,,,RECEIPT,LIMOUSINE,long,resources/sound/trials/audio_stim_comp40.mp3,60fd295a26f11be0bcb4b13a,25,Female,Right handed,2021-07-27_16h29.27.286,MA Experiment 2,2021.1.2,MacIntel,29.95805872,0,0,0,19,1,,,,,
1.284,response_2,longValid,CAPTAIN,HONEYMOON,,,,,,RUBBER,PROPERTY,long,resources/sound/trials/audio_stim_human0.mp3,60fd295a26f11be0bcb4b13a,25,Female,Right handed,2021-07-27_16h29.27.286,MA Experiment 2,2021.1.2,MacIntel,29.95805872,0,1,1,29,1,,,,,
1.697,response_2,shortFoil,FAIRY,HANDKERCHIEF,,,,,,MINER,EMERALD,long,resources/sound/trials/audio_stim_human6.mp3,60fd295a26f11be0bcb4b13a,25,Female,Right handed,2021-07-27_16h29.27.286,MA Experiment 2,2021.1.2,MacIntel,29.95805872,0,2,2,30,1,,,,,
0.782,response_2,,DIAL,HEROIN,,,,,,IRIS,VIOLIN,long,resources/sound/catchTrials/audio_control_human_project12.mp3,60fd295a26f11be0bcb4b13a,25,Female,Right handed,2021-07-27_16h29.27.286,MA Experiment 2,2021.1.2,MacIntel,29.95805872,,,,,,0,28,28,24,1
1.395,response_1,shortValid,MURDER,SETTLEMENT,,,,,,DAYLIGHT,MATERIAL,long,resources/sound/trials/audio_stim_human42.mp3,60fd295a26f11be0bcb4b13a,25,Female,Right handed,2021-07-27_16h29.27.286,MA Experiment 2,2021.1.2,MacIntel,29.95805872,0,3,3,26,1,,,,,
1.398,response_1,longFoil,FERTILE,GYMNASTICS,,,,,,MARBLE,CUSTOMER,long,resources/sound/trials/audio_stim_comp65.mp3,60fd295a26f11be0bcb4b13a,25,Female,Right handed,2021-07-27_16h29.27.286,MA Experiment 2,2021.1.2,MacIntel,29.95805872,0,4,4,21,1,,,,,
1.178,response_1,shortValid,DWELLER,ENVELOPE,,,,,,BRAINSTORM,GREEN NEEDLE,short,resources/sound/trials/audio_stim_original.mp3,60fd295a26f11be0bcb4b13a,25,Female,Right handed,2021-07-27_16h29.27.286,MA Experiment 2,2021.1.2,MacIntel,29.95805872,0,5,5,16,1,,,,,
1.629,response_1,shortValid,FOREARM,INSTITUTE,,,,,,WORKER,VISITOR,long,resources/sound/trials/audio_stim_comp17.mp3,60fd295a26f11be0bcb4b13a,25,Female,Right handed,2021-07-27_16h29.27.286,MA Experiment 2,2021.1.2,MacIntel,29.95805872,0,6,6,23,1,,,,,
1.43,response_2,,JURY,CORRIDOR,,,,,,CORNER,ENGINEER,long,resources/sound/catchTrials/audio_control_human_project14.mp3,60fd295a26f11be0bcb4b13a,25,Female,Right handed,2021-07-27_16h29.27.286,MA Experiment 2,2021.1.2,MacIntel,29.95805872,,,,,,0,14,14,26,1
1.564,response_2,longFoil,BUTTER,LEMONADE,,,,,,RUBBER,PROPERTY,short,resources/sound/trials/audio_stim_human0.mp3,60fd295a26f11be0bcb4b13a,25,Female,Right handed,2021-07-27_16h29.27.286,MA Experiment 2,2021.1.2,MacIntel,29.95805872,0,7,7,12,1,,,,,
2.404,response_1,shortFoil,TRAITOR,CANDLELIGHT,,,,,,DAYLIGHT,MATERIAL,short,resources/sound/trials/audio_stim_human42.mp3,60fd295a26f11be0bcb4b13a,25,Female,Right handed,2021-07-27_16h29.27.286,MA Experiment 2,2021.1.2,MacIntel,29.95805872,0,8,8,9,1,,,,,
1.952,response_1,shortFoil,BURNER,CROCODILE,,,,,,WHISTLE,TREASURER,short,resources/sound/trials/audio_stim_comp12.mp3,60fd295a26f11be0bcb4b13a,25,Female,Right handed,2021-07-27_16h29.27.286,MA Experiment 2,2021.1.2,MacIntel,29.95805872,0,9,9,3,1,,,,,
2.154,response_2,longFoil,LIGHTNING,ACROBAT,,,,,,MINER,EMERALD,short,resources/sound/trials/audio_stim_human6.mp3,60fd295a26f11be0bcb4b13a,25,Female,Right handed,2021-07-27_16h29.27.286,MA Experiment 2,2021.1.2,MacIntel,29.95805872,0,10,10,13,1,,,,,
1.232,response_2,,OFFICE,FACTORY,,,,,,BORDER,ALGEBRA,short,resources/sound/catchTrials/audio_control_comp_project00.mp3,60fd295a26f11be0bcb4b13a,25,Female,Right handed,2021-07-27_16h29.27.286,MA Experiment 2,2021.1.2,MacIntel,29.95805872,,,,,,0,4,4,0,1
0.83,response_2,longValid,PICTURE,AMMONIA,,,,,,RECEIPT,LIMOUSINE,short,resources/sound/trials/audio_stim_comp40.mp3,60fd295a26f11be0bcb4b13a,25,Female,Right handed,2021-07-27_16h29.27.286,MA Experiment 2,2021.1.2,MacIntel,29.95805872,0,11,11,2,1,,,,,
1.235,response_2,longValid,VALLEY,NEIGHBOURHOOD,,,,,,WORKER,VISITOR,short,resources/sound/trials/audio_stim_comp17.mp3,60fd295a26f11be0bcb4b13a,25,Female,Right handed,2021-07-27_16h29.27.286,MA Experiment 2,2021.1.2,MacIntel,29.95805872,0,12,12,6,1,,,,,
1.285,response_1,shortFoil,SOFA,GINGERBREAD,,,,,,HARDWARE,OVERCOAT,short,resources/sound/trials/audio_stim_human35.mp3,60fd295a26f11be0bcb4b13a,25,Female,Right handed,2021-07-27_16h29.27.286,MA Experiment 2,2021.1.2,MacIntel,29.95805872,0,13,13,8,1,,,,,
1.878,response_1,longFoil,HURDLE,GALLERY,,,,,,PAINTER,VEHICLE,short,resources/sound/trials/audio_stim_human47.mp3,60fd295a26f11be0bcb4b13a,25,Female,Right handed,2021-07-27_16h29.27.286,MA Experiment 2,2021.1.2,MacIntel,29.95805872,0,14,14,11,1,,,,,
1.552,response_2,,LIQUID,ENAMEL,,,,,,CORNER,ENGINEER,long,resources/sound/catchTrials/audio_control_comp_project14.mp3,60fd295a26f11be0bcb4b13a,25,Female,Right handed,2021-07-27_16h29.27.286,MA Experiment 2,2021.1.2,MacIntel,29.95805872,,,,,,0,13,13,17,1
1.533,response_2,longValid,SODA,PROPELLER,,,,,,ROBBER,RATTLESNAKE,long,resources/sound/trials/audio_stim_human64.mp3,60fd295a26f11be0bcb4b13a,25,Female,Right handed,2021-07-27_16h29.27.286,MA Experiment 2,2021.1.2,MacIntel,29.95805872,0,15,15,32,1,,,,,
1.614,response_2,longValid,WINDOW,HURRICANE,,,,,,DRIZZLE,CARDINAL,long,resources/sound/trials/audio_stim_comp69.mp3,60fd295a26f11be0bcb4b13a,25,Female,Right handed,2021-07-27_16h29.27.286,MA Experiment 2,2021.1.2,MacIntel,29.95805872,0,16,16,17,1,,,,,
2.346,response_2,longFoil,WALRUS,POLICEMAN,,,,,,MINER,EMERALD,short,resources/sound/trials/audio_stim_comp6.mp3,60fd295a26f11be0bcb4b13a,25,Female,Right handed,2021-07-27_16h29.27.286,MA Experiment 2,2021.1.2,MacIntel,29.95805872,0,17,17,1,1,,,,,
1.496,response_2,shortValid,PIANO,ALPHABET,,,,,,DRIZZLE,CARDINAL,short,resources/sound/trials/audio_stim_comp69.mp3,60fd295a26f11be0bcb4b13a,25,Female,Right handed,2021-07-27_16h29.27.286,MA Experiment 2,2021.1.2,MacIntel,29.95805872,0,18,18,0,1,,,,,
0.933,response_1,,PRINCESS,MICROSCOPE,,,,,,JUGGLER,DANDELION,short,resources/sound/catchTrials/audio_control_human_project09.mp3,60fd295a26f11be0bcb4b13a,25,Female,Right handed,2021-07-27_16h29.27.286,MA Experiment 2,2021.1.2,MacIntel,29.95805872,,,,,,0,15,15,15,1
2.361,response_2,shortFoil,INCOME,RETAILER,,,,,,PAINTER,VEHICLE,long,resources/sound/trials/audio_stim_human47.mp3,60fd295a26f11be0bcb4b13a,25,Female,Right handed,2021-07-27_16h29.27.286,MA Experiment 2,2021.1.2,MacIntel,29.95805872,0,19,19,28,1,,,,,
1.684,response_2,shortFoil,MEDICINE,INTERVIEW,,,,,,SACRED,GALAXY,long,resources/sound/trials/audio_stim_comp1.mp3,60fd295a26f11be0bcb4b13a,25,Female,Right handed,2021-07-27_16h29.27.286,MA Experiment 2,2021.1.2,MacIntel,29.95805872,0,20,20,24,1,,,,,
1.695,response_1,longValid,CHIPMUNK,AMBULANCE,,,,,,ATHLETE,IVORY,long,resources/sound/trials/audio_stim_comp57.mp3,60fd295a26f11be0bcb4b13a,25,Female,Right handed,2021-07-27_16h29.27.286,MA Experiment 2,2021.1.2,MacIntel,29.95805872,0,21,21,22,1,,,,,
1.008,response_2,shortValid,TEMPLE,COMMITTEE,,,,,,SACRED,GALAXY,short,resources/sound/trials/audio_stim_comp1.mp3,60fd295a26f11be0bcb4b13a,25,Female,Right handed,2021-07-27_16h29.27.286,MA Experiment 2,2021.1.2,MacIntel,29.95805872,0,22,22,7,1,,,,,
1.035,response_2,,WRITING,UMBRELLA,,,,,,ICY,JITTERBUG,long,resources/sound/catchTrials/audio_control_comp_project08.mp3,60fd295a26f11be0bcb4b13a,25,Female,Right handed,2021-07-27_16h29.27.286,MA Experiment 2,2021.1.2,MacIntel,29.95805872,,,,,,0,29,29,23,1
1.548,response_1,shortFoil,PERSON,HEADQUARTERS,,,,,,BRAINSTORM,GREEN NEEDLE,long,resources/sound/trials/audio_stim_original.mp3,60fd295a26f11be0bcb4b13a,25,Female,Right handed,2021-07-27_16h29.27.286,MA Experiment 2,2021.1.2,MacIntel,29.95805872,0,23,23,33,1,,,,,
1.348,response_2,shortValid,KERNEL,INJURY,,,,,,PARTY,SANCTUARY,long,resources/sound/trials/audio_stim_human50.mp3,60fd295a26f11be0bcb4b13a,25,Female,Right handed,2021-07-27_16h29.27.286,MA Experiment 2,2021.1.2,MacIntel,29.95805872,0,24,24,31,1,,,,,
1.47,response_2,longValid,EVENING,ALCOHOL,,,,,,HARDWARE,OVERCOAT,long,resources/sound/trials/audio_stim_human35.mp3,60fd295a26f11be0bcb4b13a,25,Female,Right handed,2021-07-27_16h29.27.286,MA Experiment 2,2021.1.2,MacIntel,29.95805872,0,25,25,25,1,,,,,
1.514,response_2,longFoil,FEVER,ATHLETICS,,,,,,CONCRETE,ENEMY,long,resources/sound/trials/audio_stim_human67.mp3,60fd295a26f11be0bcb4b13a,25,Female,Right handed,2021-07-27_16h29.27.286,MA Experiment 2,2021.1.2,MacIntel,29.95805872,0,26,26,27,1,,,,,
1.05,response_1,,MEASLES,ORNAMENT,,,,,,JUGGLER,DANDELION,long,resources/sound/catchTrials/audio_control_human_project09.mp3,60fd295a26f11be0bcb4b13a,25,Female,Right handed,2021-07-27_16h29.27.286,MA Experiment 2,2021.1.2,MacIntel,29.95805872,,,,,,0,3,3,31,1
1.711,response_2,shortFoil,SCOOTER,CABINET,,,,,,MINER,EMERALD,long,resources/sound/trials/audio_stim_comp6.mp3,60fd295a26f11be0bcb4b13a,25,Female,Right handed,2021-07-27_16h29.27.286,MA Experiment 2,2021.1.2,MacIntel,29.95805872,0,27,27,18,1,,,,,
1.332,response_2,shortFoil,NECKLACE,OPENING,,,,,,ROBBER,RATTLESNAKE,short,resources/sound/trials/audio_stim_human64.mp3,60fd295a26f11be0bcb4b13a,25,Female,Right handed,2021-07-27_16h29.27.286,MA Experiment 2,2021.1.2,MacIntel,29.95805872,0,28,28,15,1,,,,,
2.311,response_2,longValid,PIPING,JANITOR,,,,,,CONCRETE,ENEMY,short,resources/sound/trials/audio_stim_human67.mp3,60fd295a26f11be0bcb4b13a,25,Female,Right handed,2021-07-27_16h29.27.286,MA Experiment 2,2021.1.2,MacIntel,29.95805872,0,29,29,10,1,,,,,
1.15,response_1,shortValid,BERRY,LECTURER,,,,,,ATHLETE,IVORY,short,resources/sound/trials/audio_stim_comp57.mp3,60fd295a26f11be0bcb4b13a,25,Female,Right handed,2021-07-27_16h29.27.286,MA Experiment 2,2021.1.2,MacIntel,29.95805872,0,30,30,5,1,,,,,
1.253,response_2,,UNCLE,MEDICINE,,,,,,CORNER,ENGINEER,short,resources/sound/catchTrials/audio_control_human_project14.mp3,60fd295a26f11be0bcb4b13a,25,Female,Right handed,2021-07-27_16h29.27.286,MA Experiment 2,2021.1.2,MacIntel,29.95805872,,,,,,0,18,18,10,1
0.881,response_2,shortFoil,MORNING,HOSPITAL,,,,,,PARTY,SANCTUARY,short,resources/sound/trials/audio_stim_human50.mp3,60fd295a26f11be0bcb4b13a,25,Female,Right handed,2021-07-27_16h29.27.286,MA Experiment 2,2021.1.2,MacIntel,29.95805872,0,31,31,14,1,,,,,
1.292,response_1,shortValid,SEGMENT,MESSENGER,,,,,,WHISTLE,TREASURER,long,resources/sound/trials/audio_stim_comp12.mp3,60fd295a26f11be0bcb4b13a,25,Female,Right handed,2021-07-27_16h29.27.286,MA Experiment 2,2021.1.2,MacIntel,29.95805872,0,32,32,20,1,,,,,
1.487,response_2,longValid,SULPHUR,CIGARETTE,,,,,,MARBLE,CUSTOMER,short,resources/sound/trials/audio_stim_comp65.mp3,60fd295a26f11be0bcb4b13a,25,Female,Right handed,2021-07-27_16h29.27.286,MA Experiment 2,2021.1.2,MacIntel,29.95805872,0,33,33,4,1,,,,,
1.931,response_1,longValid,SHOULDER,CINNAMON,,,,,,WHISTLE,TREASURER,short,resources/sound/trials/audio_stim_comp12.mp3,60fd295a26f11be0bcb4b13a,25,Female,Right handed,2021-07-27_16h29.27.286,MA Experiment 2,2021.1.2,MacIntel,29.95805872,1,0,34,3,1,,,,,
1.432,response_2,longFoil,SHEEPSKIN,MOSQUITO,,,,,,MINER,EMERALD,long,resources/sound/trials/audio_stim_human6.mp3,60fd295a26f11be0bcb4b13a,25,Female,Right handed,2021-07-27_16h29.27.286,MA Experiment 2,2021.1.2,MacIntel,29.95805872,1,1,35,30,1,,,,,
1.197,response_1,longValid,CEREAL,INDUSTRY,,,,,,DAYLIGHT,MATERIAL,long,resources/sound/trials/audio_stim_human42.mp3,60fd295a26f11be0bcb4b13a,25,Female,Right handed,2021-07-27_16h29.27.286,MA Experiment 2,2021.1.2,MacIntel,29.95805872,1,2,36,26,1,,,,,
1.233,response_2,,STOCKING,AVENUE,,,,,,JOURNAL,ROBBERY,short,resources/sound/catchTrials/audio_control_human_project02.mp3,60fd295a26f11be0bcb4b13a,25,Female,Right handed,2021-07-27_16h29.27.286,MA Experiment 2,2021.1.2,MacIntel,29.95805872,,,,,,0,30,30,13,1
1.347,response_2,longFoil,LOBSTER,PROFESSOR,,,,,,DRIZZLE,CARDINAL,short,resources/sound/trials/audio_stim_comp69.mp3,60fd295a26f11be0bcb4b13a,25,Female,Right handed,2021-07-27_16h29.27.286,MA Experiment 2,2021.1.2,MacIntel,29.95805872,1,3,37,0,1,,,,,
1.14,response_2,shortValid,ACRE,INSTRUCTOR,,,,,,SACRED,GALAXY,long,resources/sound/trials/audio_stim_comp1.mp3,60fd295a26f11be0bcb4b13a,25,Female,Right handed,2021-07-27_16h29.27.286,MA Experiment 2,2021.1.2,MacIntel,29.95805872,1,4,38,24,1,,,,,
1.461,response_1,shortValid,VILLAGE,MONUMENT,,,,,,BRAINSTORM,GREEN NEEDLE,long,resources/sound/trials/audio_stim_original.mp3,60fd295a26f11be0bcb4b13a,25,Female,Right handed,2021-07-27_16h29.27.286,MA Experiment 2,2021.1.2,MacIntel,29.95805872,1,5,39,33,1,,,,,
1.712,response_2,longValid,MISTRESS,CATHEDRAL,,,,,,MINER,EMERALD,short,resources/sound/trials/audio_stim_comp6.mp3,60fd295a26f11be0bcb4b13a,25,Female,Right handed,2021-07-27_16h29.27.286,MA Experiment 2,2021.1.2,MacIntel,29.95805872,1,6,40,1,1,,,,,
1.108,response_2,,RABBI,CAPITAL,,,,,,SPINACH,APRICOT,long,resources/sound/catchTrials/audio_control_comp_project18.mp3,60fd295a26f11be0bcb4b13a,25,Female,Right handed,2021-07-27_16h29.27.286,MA Experiment 2,2021.1.2,MacIntel,29.95805872,,,,,,0,11,11,21,1
0.903,response_2,shortValid,INVOICE,CLARINET,,,,,,RUBBER,PROPERTY,short,resources/sound/trials/audio_stim_human0.mp3,60fd295a26f11be0bcb4b13a,25,Female,Right handed,2021-07-27_16h29.27.286,MA Experiment 2,2021.1.2,MacIntel,29.95805872,1,7,41,12,1,,,,,
2.061,response_1,longValid,BEETLE,PHOTOGRAPH,,,,,,MARBLE,CUSTOMER,long,resources/sound/trials/audio_stim_comp65.mp3,60fd295a26f11be0bcb4b13a,25,Female,Right handed,2021-07-27_16h29.27.286,MA Experiment 2,2021.1.2,MacIntel,29.95805872,1,8,42,21,1,,,,,
2.015,response_1,shortFoil,NOVEL,DIAMOND,,,,,,PAINTER,VEHICLE,short,resources/sound/trials/audio_stim_human47.mp3,60fd295a26f11be0bcb4b13a,25,Female,Right handed,2021-07-27_16h29.27.286,MA Experiment 2,2021.1.2,MacIntel,29.95805872,1,9,43,11,1,,,,,
1.082,response_1,longFoil,MOONLIGHT,CARNATION,,,,,,DAYLIGHT,MATERIAL,short,resources/sound/trials/audio_stim_human42.mp3,60fd295a26f11be0bcb4b13a,25,Female,Right handed,2021-07-27_16h29.27.286,MA Experiment 2,2021.1.2,MacIntel,29.95805872,1,10,44,9,1,,,,,
1.347,response_2,,KENNEL,MINISTER,,,,,,NAVY,RECTANGLE,short,resources/sound/catchTrials/audio_control_comp_project06.mp3,60fd295a26f11be0bcb4b13a,25,Female,Right handed,2021-07-27_16h29.27.286,MA Experiment 2,2021.1.2,MacIntel,29.95805872,,,,,,0,22,22,6,1
1.099,response_2,longValid,OLIVE,SAXOPHONE,,,,,,RECEIPT,LIMOUSINE,long,resources/sound/trials/audio_stim_comp40.mp3,60fd295a26f11be0bcb4b13a,25,Female,Right handed,2021-07-27_16h29.27.286,MA Experiment 2,2021.1.2,MacIntel,29.95805872,1,11,45,19,1,,,,,
1.116,response_2,longValid,CIGAR,VINEGAR,,,,,,WORKER,VISITOR,long,resources/sound/trials/audio_stim_comp17.mp3,60fd295a26f11be0bcb4b13a,25,Female,Right handed,2021-07-27_16h29.27.286,MA Experiment 2,2021.1.2,MacIntel,29.95805872,1,12,46,23,1,,,,,
1.379,response_2,longFoil,TORTURE,MINERAL,,,,,,RECEIPT,LIMOUSINE,short,resources/sound/trials/audio_stim_comp40.mp3,60fd295a26f11be0bcb4b13a,25,Female,Right handed,2021-07-27_16h29.27.286,MA Experiment 2,2021.1.2,MacIntel,29.95805872,1,13,47,2,1,,,,,
0.756,response_1,longFoil,ANCHOR,MOLECULE,,,,,,BRAINSTORM,GREEN NEEDLE,short,resources/sound/trials/audio_stim_original.mp3,60fd295a26f11be0bcb4b13a,25,Female,Right handed,2021-07-27_16h29.27.286,MA Experiment 2,2021.1.2,MacIntel,29.95805872,1,14,48,16,1,,,,,
1.477,response_1,,DUEL,ATTENDANT,,,,,,POISON,REVOLVER,long,resources/sound/catchTrials/audio_control_human_project01.mp3,60fd295a26f11be0bcb4b13a,25,Female,Right handed,2021-07-27_16h29.27.286,MA Experiment 2,2021.1.2,MacIntel,29.95805872,,,,,,0,2,2,25,1
0.953,response_2,shortFoil,EARTHWORM,MECHANIC,,,,,,PARTY,SANCTUARY,long,resources/sound/trials/audio_stim_human50.mp3,60fd295a26f11be0bcb4b13a,25,Female,Right handed,2021-07-27_16h29.27.286,MA Experiment 2,2021.1.2,MacIntel,29.95805872,1,15,49,31,1,,,,,
1.165,response_2,shortValid,CANTEEN,CHOCOLATE,,,,,,RUBBER,PROPERTY,long,resources/sound/trials/audio_stim_human0.mp3,60fd295a26f11be0bcb4b13a,25,Female,Right handed,2021-07-27_16h29.27.286,MA Experiment 2,2021.1.2,MacIntel,29.95805872,1,16,50,29,1,,,,,
1.495,response_2,shortValid,WIRE,APPLIANCE,,,,,,DRIZZLE,CARDINAL,long,resources/sound/trials/audio_stim_comp69.mp3,60fd295a26f11be0bcb4b13a,25,Female,Right handed,2021-07-27_16h29.27.286,MA Experiment 2,2021.1.2,MacIntel,29.95805872,1,17,51,17,1,,,,,
0.945,response_2,longValid,LEADER,PROJECTOR,,,,,,ROBBER,RATTLESNAKE,short,resources/sound/trials/audio_stim_human64.mp3,60fd295a26f11be0bcb4b13a,25,Female,Right handed,2021-07-27_16h29.27.286,MA Experiment 2,2021.1.2,MacIntel,29.95805872,1,18,52,15,1,,,,,
1.282,response_2,,DECOY,ANTIQUE,,,,,,HOBBY,COLONY,short,resources/sound/catchTrials/audio_control_comp_project04.mp3,60fd295a26f11be0bcb4b13a,25,Female,Right handed,2021-07-27_16h29.27.286,MA Experiment 2,2021.1.2,MacIntel,29.95805872,,,,,,0,19,19,2,1
1.198,response_1,shortFoil,HAMMER,EMULSION,,,,,,ATHLETE,IVORY,long,resources/sound/trials/audio_stim_comp57.mp3,60fd295a26f11be0bcb4b13a,25,Female,Right handed,2021-07-27_16h29.27.286,MA Experiment 2,2021.1.2,MacIntel,29.95805872,1,19,53,22,1,,,,,
1.312,response_2,longValid,STATION,BUTTERFLY,,,,,,MINER,EMERALD,long,resources/sound/trials/audio_stim_comp6.mp3,60fd295a26f11be0bcb4b13a,25,Female,Right handed,2021-07-27_16h29.27.286,MA Experiment 2,2021.1.2,MacIntel,29.95805872,1,20,54,18,1,,,,,
1.619,response_1,longFoil,RUSTY,GORILLA,,,,,,PARTY,SANCTUARY,short,resources/sound/trials/audio_stim_human50.mp3,60fd295a26f11be0bcb4b13a,25,Female,Right handed,2021-07-27_16h29.27.286,MA Experiment 2,2021.1.2,MacIntel,29.95805872,1,21,55,14,1,,,,,
1.928,response_2,longFoil,FATHER,POTATO,,,,,,ROBBER,RATTLESNAKE,long,resources/sound/trials/audio_stim_human64.mp3,60fd295a26f11be0bcb4b13a,25,Female,Right handed,2021-07-27_16h29.27.286,MA Experiment 2,2021.1.2,MacIntel,29.95805872,1,22,56,32,1,,,,,
0.86,response_2,,SINGER,FISHERMAN,,,,,,JOURNAL,ROBBERY,long,resources/sound/catchTrials/audio_control_human_project02.mp3,60fd295a26f11be0bcb4b13a,25,Female,Right handed,2021-07-27_16h29.27.286,MA Experiment 2,2021.1.2,MacIntel,29.95805872,,,,,,0,20,20,29,1
1.29,response_2,longFoil,TWEEZER,CONVENTION,,,,,,HARDWARE,OVERCOAT,short,resources/sound/trials/audio_stim_human35.mp3,60fd295a26f11be0bcb4b13a,25,Female,Right handed,2021-07-27_16h29.27.286,MA Experiment 2,2021.1.2,MacIntel,29.95805872,1,23,57,8,1,,,,,
1.902,response_2,longValid,SADDLE,TEMPERATURE,,,,,,SACRED,GALAXY,short,resources/sound/trials/audio_stim_comp1.mp3,60fd295a26f11be0bcb4b13a,25,Female,Right handed,2021-07-27_16h29.27.286,MA Experiment 2,2021.1.2,MacIntel,29.95805872,1,24,58,7,1,,,,,
1.314,response_2,longValid,TUMBLE,POLIO,,,,,,PAINTER,VEHICLE,long,resources/sound/trials/audio_stim_human47.mp3,60fd295a26f11be0bcb4b13a,25,Female,Right handed,2021-07-27_16h29.27.286,MA Experiment 2,2021.1.2,MacIntel,29.95805872,1,25,59,28,1,,,,,
1.245,response_2,shortFoil,GIRDLE,INSTRUMENT,,,,,,HARDWARE,OVERCOAT,long,resources/sound/trials/audio_stim_human35.mp3,60fd295a26f11be0bcb4b13a,25,Female,Right handed,2021-07-27_16h29.27.286,MA Experiment 2,2021.1.2,MacIntel,29.95805872,1,26,60,25,1,,,,,
2.177,response_1,,CABIN,FIREWOOD,,,,,,VIOLET,LUBRICANT,short,resources/sound/catchTrials/audio_control_comp_project07.mp3,60fd295a26f11be0bcb4b13a,25,Female,Right handed,2021-07-27_16h29.27.286,MA Experiment 2,2021.1.2,MacIntel,29.95805872,,,,,,0,21,21,3,1
1.86,response_2,shortFoil,CRYSTAL,TANGERINE,,,,,,CONCRETE,ENEMY,short,resources/sound/trials/audio_stim_human67.mp3,60fd295a26f11be0bcb4b13a,25,Female,Right handed,2021-07-27_16h29.27.286,MA Experiment 2,2021.1.2,MacIntel,29.95805872,1,27,61,10,1,,,,,
1.529,response_2,longValid,MUSCLE,GOVERNMENT,,,,,,CONCRETE,ENEMY,long,resources/sound/trials/audio_stim_human67.mp3,60fd295a26f11be0bcb4b13a,25,Female,Right handed,2021-07-27_16h29.27.286,MA Experiment 2,2021.1.2,MacIntel,29.95805872,1,28,62,27,1,,,,,
1.464,response_1,longFoil,PODIUM,BEVERAGE,,,,,,WHISTLE,TREASURER,long,resources/sound/trials/audio_stim_comp12.mp3,60fd295a26f11be0bcb4b13a,25,Female,Right handed,2021-07-27_16h29.27.286,MA Experiment 2,2021.1.2,MacIntel,29.95805872,1,29,63,20,1,,,,,
0.664,response_1,shortValid,NURSERY,ICICLE,,,,,,MARBLE,CUSTOMER,short,resources/sound/trials/audio_stim_comp65.mp3,60fd295a26f11be0bcb4b13a,25,Female,Right handed,2021-07-27_16h29.27.286,MA Experiment 2,2021.1.2,MacIntel,29.95805872,1,30,64,4,1,,,,,
1.115,response_2,,WAFER,ABDOMEN,,,,,,ICY,JITTERBUG,short,resources/sound/catchTrials/audio_control_comp_project08.mp3,60fd295a26f11be0bcb4b13a,25,Female,Right handed,2021-07-27_16h29.27.286,MA Experiment 2,2021.1.2,MacIntel,29.95805872,,,,,,0,24,24,7,1
1.521,response_1,shortValid,DANCER,MERCURY,,,,,,WORKER,VISITOR,short,resources/sound/trials/audio_stim_comp17.mp3,60fd295a26f11be0bcb4b13a,25,Female,Right handed,2021-07-27_16h29.27.286,MA Experiment 2,2021.1.2,MacIntel,29.95805872,1,31,65,6,1,,,,,
1.113,response_2,longValid,DIVING,SPECIALIST,,,,,,MINER,EMERALD,short,resources/sound/trials/audio_stim_human6.mp3,60fd295a26f11be0bcb4b13a,25,Female,Right handed,2021-07-27_16h29.27.286,MA Experiment 2,2021.1.2,MacIntel,29.95805872,1,32,66,13,1,,,,,
1.493,response_1,shortFoil,GRADUATE,FAMILY,,,,,,ATHLETE,IVORY,short,resources/sound/trials/audio_stim_comp57.mp3,60fd295a26f11be0bcb4b13a,25,Female,Right handed,2021-07-27_16h29.27.286,MA Experiment 2,2021.1.2,MacIntel,29.95805872,1,33,67,5,1,,,,,
1.131,response_2,longValid,PATIENT,DISSECTION,,,,,,HARDWARE,OVERCOAT,short,resources/sound/trials/audio_stim_human35.mp3,60fd295a26f11be0bcb4b13a,25,Female,Right handed,2021-07-27_16h29.27.286,MA Experiment 2,2021.1.2,MacIntel,29.95805872,2,0,68,8,1,,,,,
1.21,response_2,shortFoil,NOVEL,CORRIDOR,,,,,,SACRED,GALAXY,short,resources/sound/trials/audio_stim_comp1.mp3,60fd295a26f11be0bcb4b13a,25,Female,Right handed,2021-07-27_16h29.27.286,MA Experiment 2,2021.1.2,MacIntel,29.95805872,2,1,69,7,1,,,,,
1.177,response_1,shortFoil,PRINCESS,INSTRUMENT,,,,,,WORKER,VISITOR,long,resources/sound/trials/audio_stim_comp17.mp3,60fd295a26f11be0bcb4b13a,25,Female,Right handed,2021-07-27_16h29.27.286,MA Experiment 2,2021.1.2,MacIntel,29.95805872,2,2,70,23,1,,,,,
1.052,response_1,,NAPKIN,BUTTERFLY,,,,,,POISON,REVOLVER,short,resources/sound/catchTrials/audio_control_human_project01.mp3,60fd295a26f11be0bcb4b13a,25,Female,Right handed,2021-07-27_16h29.27.286,MA Experiment 2,2021.1.2,MacIntel,29.95805872,,,,,,0,1,1,9,1
1.164,response_1,longValid,LIQUID,CATHEDRAL,,,,,,BRAINSTORM,GREEN NEEDLE,short,resources/sound/trials/audio_stim_original.mp3,60fd295a26f11be0bcb4b13a,25,Female,Right handed,2021-07-27_16h29.27.286,MA Experiment 2,2021.1.2,MacIntel,29.95805872,2,3,71,16,1,,,,,
1.53,response_1,longValid,WALRUS,TANGERINE,,,,,,DAYLIGHT,MATERIAL,short,resources/sound/trials/audio_stim_human42.mp3,60fd295a26f11be0bcb4b13a,25,Female,Right handed,2021-07-27_16h29.27.286,MA Experiment 2,2021.1.2,MacIntel,29.95805872,2,4,72,9,1,,,,,
0.532,response_2,shortValid,INCOME,MONUMENT,,,,,,ROBBER,RATTLESNAKE,short,resources/sound/trials/audio_stim_human64.mp3,60fd295a26f11be0bcb4b13a,25,Female,Right handed,2021-07-27_16h29.27.286,MA Experiment 2,2021.1.2,MacIntel,29.95805872,2,5,73,15,1,,,,,
1.563,response_1,shortFoil,DUEL,STRAWBERRY,,,,,,WHISTLE,TREASURER,long,resources/sound/trials/audio_stim_comp12.mp3,60fd295a26f11be0bcb4b13a,25,Female,Right handed,2021-07-27_16h29.27.286,MA Experiment 2,2021.1.2,MacIntel,29.95805872,2,6,74,20,1,,,,,
1.599,response_2,,LEADER,FAMILY,,,,,,HOBBY,COLONY,long,resources/sound/catchTrials/audio_control_comp_project04.mp3,60fd295a26f11be0bcb4b13a,25,Female,Right handed,2021-07-27_16h29.27.286,MA Experiment 2,2021.1.2,MacIntel,29.95805872,,,,,,0,6,6,18,1
1.52,response_1,shortValid,TWEEZER,ALCOHOL,,,,,,MARBLE,CUSTOMER,long,resources/sound/trials/audio_stim_comp65.mp3,60fd295a26f11be0bcb4b13a,25,Female,Right handed,2021-07-27_16h29.27.286,MA Experiment 2,2021.1.2,MacIntel,29.95805872,2,7,75,21,1,,,,,
1.301,response_2,longValid,CABIN,REFEREE,,,,,,MINER,EMERALD,long,resources/sound/trials/audio_stim_human6.mp3,60fd295a26f11be0bcb4b13a,25,Female,Right handed,2021-07-27_16h29.27.286,MA Experiment 2,2021.1.2,MacIntel,29.95805872,2,8,76,30,1,,,,,
1.699,response_2,shortFoil,NURSERY,JANITOR,,,,,,RUBBER,PROPERTY,short,resources/sound/trials/audio_stim_human0.mp3,60fd295a26f11be0bcb4b13a,25,Female,Right handed,2021-07-27_16h29.27.286,MA Experiment 2,2021.1.2,MacIntel,29.95805872,2,9,77,12,1,,,,,
1.282,response_1,longValid,WIRE,EMULSION,,,,,,BRAINSTORM,GREEN NEEDLE,long,resources/sound/trials/audio_stim_original.mp3,60fd295a26f11be0bcb4b13a,25,Female,Right handed,2021-07-27_16h29.27.286,MA Experiment 2,2021.1.2,MacIntel,29.95805872,2,10,78,33,1,,,,,
0.915,response_2,,MORNING,HURRICANE,,,,,,IRIS,VIOLIN,short,resources/sound/catchTrials/audio_control_comp_project12.mp3,60fd295a26f11be0bcb4b13a,25,Female,Right handed,2021-07-27_16h29.27.286,MA Experiment 2,2021.1.2,MacIntel,29.95805872,,,,,,0,7,7,4,1
1.05,response_2,longFoil,LOBSTER,ALPHABET,,,,,,HARDWARE,OVERCOAT,long,resources/sound/trials/audio_stim_human35.mp3,60fd295a26f11be0bcb4b13a,25,Female,Right handed,2021-07-27_16h29.27.286,MA Experiment 2,2021.1.2,MacIntel,29.95805872,2,11,79,25,1,,,,,
1.314,response_2,shortValid,WRITING,SAXOPHONE,,,,,,MINER,EMERALD,short,resources/sound/trials/audio_stim_comp6.mp3,60fd295a26f11be0bcb4b13a,25,Female,Right handed,2021-07-27_16h29.27.286,MA Experiment 2,2021.1.2,MacIntel,29.95805872,2,12,80,1,1,,,,,
1.321,response_2,longValid,NEIGHBOUR,BEVERAGE,,,,,,PARTY,SANCTUARY,short,resources/sound/trials/audio_stim_human50.mp3,60fd295a26f11be0bcb4b13a,25,Female,Right handed,2021-07-27_16h29.27.286,MA Experiment 2,2021.1.2,MacIntel,29.95805872,2,13,81,14,1,,,,,
1.953,response_1,longFoil,WINDOW,ANTIQUE,,,,,,PAINTER,VEHICLE,long,resources/sound/trials/audio_stim_human47.mp3,60fd295a26f11be0bcb4b13a,25,Female,Right handed,2021-07-27_16h29.27.286,MA Experiment 2,2021.1.2,MacIntel,29.95805872,2,14,82,28,1,,,,,
1.428,response_2,,FERTILE,CITIZEN,,,,,,NAVY,RECTANGLE,short,resources/sound/catchTrials/audio_control_human_project06.mp3,60fd295a26f11be0bcb4b13a,25,Female,Right handed,2021-07-27_16h29.27.286,MA Experiment 2,2021.1.2,MacIntel,29.95805872,,,,,,0,31,31,14,1
1.936,response_2,longValid,HAMMER,CIGARETTE,,,,,,DRIZZLE,CARDINAL,short,resources/sound/trials/audio_stim_comp69.mp3,60fd295a26f11be0bcb4b13a,25,Female,Right handed,2021-07-27_16h29.27.286,MA Experiment 2,2021.1.2,MacIntel,29.95805872,2,15,83,0,1,,,,,
1.221,response_2,shortValid,POLO,PHYSICIAN,,,,,,CONCRETE,ENEMY,short,resources/sound/trials/audio_stim_human67.mp3,60fd295a26f11be0bcb4b13a,25,Female,Right handed,2021-07-27_16h29.27.286,MA Experiment 2,2021.1.2,MacIntel,29.95805872,2,16,84,10,1,,,,,
1.499,response_2,longFoil,GRADUATE,PROJECTOR,,,,,,DRIZZLE,CARDINAL,long,resources/sound/trials/audio_stim_comp69.mp3,60fd295a26f11be0bcb4b13a,25,Female,Right handed,2021-07-27_16h29.27.286,MA Experiment 2,2021.1.2,MacIntel,29.95805872,2,17,85,17,1,,,,,
1.197,response_2,longValid,SEGMENT,DESTROYER,,,,,,SACRED,GALAXY,long,resources/sound/trials/audio_stim_comp1.mp3,60fd295a26f11be0bcb4b13a,25,Female,Right handed,2021-07-27_16h29.27.286,MA Experiment 2,2021.1.2,MacIntel,29.95805872,2,18,86,24,1,,,,,
1.047,response_2,,HARBOUR,CLARINET,,,,,,CORNER,ENGINEER,short,resources/sound/catchTrials/audio_control_comp_project14.mp3,60fd295a26f11be0bcb4b13a,25,Female,Right handed,2021-07-27_16h29.27.286,MA Experiment 2,2021.1.2,MacIntel,29.95805872,,,,,,0,17,17,1,1
1.37,response_1,longValid,RABBI,INDUSTRY,,,,,,ATHLETE,IVORY,short,resources/sound/trials/audio_stim_comp57.mp3,60fd295a26f11be0bcb4b13a,25,Female,Right handed,2021-07-27_16h29.27.286,MA Experiment 2,2021.1.2,MacIntel,29.95805872,2,19,87,5,1,,,,,
1.365,response_1,shortFoil,ANCHOR,DIAMOND,,,,,,WORKER,VISITOR,short,resources/sound/trials/audio_stim_comp17.mp3,60fd295a26f11be0bcb4b13a,25,Female,Right handed,2021-07-27_16h29.27.286,MA Experiment 2,2021.1.2,MacIntel,29.95805872,2,20,88,6,1,,,,,
1.246,response_2,longFoil,WAFER,INJURY,,,,,,MINER,EMERALD,long,resources/sound/trials/audio_stim_comp6.mp3,60fd295a26f11be0bcb4b13a,25,Female,Right handed,2021-07-27_16h29.27.286,MA Experiment 2,2021.1.2,MacIntel,29.95805872,2,21,89,18,1,,,,,
0.914,response_2,longValid,TORTURE,SETTLEMENT,,,,,,PARTY,SANCTUARY,long,resources/sound/trials/audio_stim_human50.mp3,60fd295a26f11be0bcb4b13a,25,Female,Right handed,2021-07-27_16h29.27.286,MA Experiment 2,2021.1.2,MacIntel,29.95805872,2,22,90,31,1,,,,,
1.266,response_2,,MURAL,MICROSCOPE,,,,,,NAVY,RECTANGLE,long,resources/sound/catchTrials/audio_control_comp_project06.mp3,60fd295a26f11be0bcb4b13a,25,Female,Right handed,2021-07-27_16h29.27.286,MA Experiment 2,2021.1.2,MacIntel,29.95805872,,,,,,0,25,25,22,1
1.983,response_2,shortFoil,FATHER,ACROBAT,,,,,,CONCRETE,ENEMY,long,resources/sound/trials/audio_stim_human67.mp3,60fd295a26f11be0bcb4b13a,25,Female,Right handed,2021-07-27_16h29.27.286,MA Experiment 2,2021.1.2,MacIntel,29.95805872,2,23,91,27,1,,,,,
1.648,response_1,shortValid,DIVING,LECTURER,,,,,,MINER,EMERALD,short,resources/sound/trials/audio_stim_human6.mp3,60fd295a26f11be0bcb4b13a,25,Female,Right handed,2021-07-27_16h29.27.286,MA Experiment 2,2021.1.2,MacIntel,29.95805872,2,24,92,13,1,,,,,
1.677,response_1,shortFoil,RUSTY,ATTENDANT,,,,,,DAYLIGHT,MATERIAL,long,resources/sound/trials/audio_stim_human42.mp3,60fd295a26f11be0bcb4b13a,25,Female,Right handed,2021-07-27_16h29.27.286,MA Experiment 2,2021.1.2,MacIntel,29.95805872,2,25,93,26,1,,,,,
1.071,response_1,longFoil,TEMPLE,GINGERBREAD,,,,,,WHISTLE,TREASURER,short,resources/sound/trials/audio_stim_comp12.mp3,60fd295a26f11be0bcb4b13a,25,Female,Right handed,2021-07-27_16h29.27.286,MA Experiment 2,2021.1.2,MacIntel,29.95805872,2,26,94,3,1,,,,,
1.287,response_2,,SINGER,FURNITURE,,,,,,NAVY,RECTANGLE,long,resources/sound/catchTrials/audio_control_human_project06.mp3,60fd295a26f11be0bcb4b13a,25,Female,Right handed,2021-07-27_16h29.27.286,MA Experiment 2,2021.1.2,MacIntel,29.95805872,,,,,,0,23,23,30,1
1.396,response_2,shortFoil,KETTLE,HOSPITAL,,,,,,RUBBER,PROPERTY,long,resources/sound/trials/audio_stim_human0.mp3,60fd295a26f11be0bcb4b13a,25,Female,Right handed,2021-07-27_16h29.27.286,MA Experiment 2,2021.1.2,MacIntel,29.95805872,2,27,95,29,1,,,,,
1.05,response_2,shortFoil,TUMBLE,CINNAMON,,,,,,RECEIPT,LIMOUSINE,short,resources/sound/trials/audio_stim_comp40.mp3,60fd295a26f11be0bcb4b13a,25,Female,Right handed,2021-07-27_16h29.27.286,MA Experiment 2,2021.1.2,MacIntel,29.95805872,2,28,96,2,1,,,,,
1.465,response_1,longFoil,UNCLE,HEADQUARTERS,,,,,,MARBLE,CUSTOMER,short,resources/sound/trials/audio_stim_comp65.mp3,60fd295a26f11be0bcb4b13a,25,Female,Right handed,2021-07-27_16h29.27.286,MA Experiment 2,2021.1.2,MacIntel,29.95805872,2,29,97,4,1,,,,,
1.453,response_1,shortValid,DWELLER,NEWSPAPER,,,,,,ATHLETE,IVORY,long,resources/sound/trials/audio_stim_comp57.mp3,60fd295a26f11be0bcb4b13a,25,Female,Right handed,2021-07-27_16h29.27.286,MA Experiment 2,2021.1.2,MacIntel,29.95805872,2,30,98,22,1,,,,,
1.18,response_1,,LIGHTNING,MECHANIC,,,,,,VIOLET,LUBRICANT,long,resources/sound/catchTrials/audio_control_human_project07.mp3,60fd295a26f11be0bcb4b13a,25,Female,Right handed,2021-07-27_16h29.27.286,MA Experiment 2,2021.1.2,MacIntel,29.95805872,,,,,,0,27,27,28,1
1.564,response_2,longValid,KENNEL,INTERVIEW,,,,,,PAINTER,VEHICLE,short,resources/sound/trials/audio_stim_human47.mp3,60fd295a26f11be0bcb4b13a,25,Female,Right handed,2021-07-27_16h29.27.286,MA Experiment 2,2021.1.2,MacIntel,29.95805872,2,31,99,11,1,,,,,
1.871,response_2,shortValid,MURDER,GORILLA,,,,,,RECEIPT,LIMOUSINE,long,resources/sound/trials/audio_stim_comp40.mp3,60fd295a26f11be0bcb4b13a,25,Female,Right handed,2021-07-27_16h29.27.286,MA Experiment 2,2021.1.2,MacIntel,29.95805872,2,32,100,19,1,,,,,
1.214,response_2,shortValid,MISTRESS,GOVERNMENT,,,,,,ROBBER,RATTLESNAKE,long,resources/sound/trials/audio_stim_human64.mp3,60fd295a26f11be0bcb4b13a,25,Female,Right handed,2021-07-27_16h29.27.286,MA Experiment 2,2021.1.2,MacIntel,29.95805872,2,33,101,32,1,,,,,
1.288,response_2,shortFoil,DECOY,GALLERY,,,,,,ROBBER,RATTLESNAKE,long,resources/sound/trials/audio_stim_human64.mp3,60fd295a26f11be0bcb4b13a,25,Female,Right handed,2021-07-27_16h29.27.286,MA Experiment 2,2021.1.2,MacIntel,29.95805872,3,0,102,32,1,,,,,
0.881,response_1,longFoil,CIGAR,POLIO,,,,,,DAYLIGHT,MATERIAL,long,resources/sound/trials/audio_stim_human42.mp3,60fd295a26f11be0bcb4b13a,25,Female,Right handed,2021-07-27_16h29.27.286,MA Experiment 2,2021.1.2,MacIntel,29.95805872,3,1,103,26,1,,,,,
1.749,response_2,shortFoil,PICTURE,ENVELOPE,,,,,,RECEIPT,LIMOUSINE,long,resources/sound/trials/audio_stim_comp40.mp3,60fd295a26f11be0bcb4b13a,25,Female,Right handed,2021-07-27_16h29.27.286,MA Experiment 2,2021.1.2,MacIntel,29.95805872,3,2,104,19,1,,,,,
1.316,response_2,,SOFA,FACTORY,,,,,,HOBBY,COLONY,short,resources/sound/catchTrials/audio_control_human_project04.mp3,60fd295a26f11be0bcb4b13a,25,Female,Right handed,2021-07-27_16h29.27.286,MA Experiment 2,2021.1.2,MacIntel,29.95805872,,,,,,0,9,9,11,1
1.481,response_2,shortValid,VESSEL,CROCODILE,,,,,,HARDWARE,OVERCOAT,short,resources/sound/trials/audio_stim_human35.mp3,60fd295a26f11be0bcb4b13a,25,Female,Right handed,2021-07-27_16h29.27.286,MA Experiment 2,2021.1.2,MacIntel,29.95805872,3,3,105,8,1,,,,,
1.16,response_1,longFoil,HURDLE,OPENING,,,,,,ATHLETE,IVORY,short,resources/sound/trials/audio_stim_comp57.mp3,60fd295a26f11be0bcb4b13a,25,Female,Right handed,2021-07-27_16h29.27.286,MA Experiment 2,2021.1.2,MacIntel,29.95805872,3,4,106,5,1,,,,,
1.713,response_2,shortValid,BEETLE,PROFESSOR,,,,,,PARTY,SANCTUARY,short,resources/sound/trials/audio_stim_human50.mp3,60fd295a26f11be0bcb4b13a,25,Female,Right handed,2021-07-27_16h29.27.286,MA Experiment 2,2021.1.2,MacIntel,29.95805872,3,5,107,14,1,,,,,
1.862,response_1,longValid,BERRY,MINISTER,,,,,,WHISTLE,TREASURER,long,resources/sound/trials/audio_stim_comp12.mp3,60fd295a26f11be0bcb4b13a,25,Female,Right handed,2021-07-27_16h29.27.286,MA Experiment 2,2021.1.2,MacIntel,29.95805872,3,6,108,20,1,,,,,
0.567,response_1,,DOORWAY,HANDKERCHIEF,,,,,,VIOLET,LUBRICANT,long,resources/sound/catchTrials/audio_control_comp_project07.mp3,60fd295a26f11be0bcb4b13a,25,Female,Right handed,2021-07-27_16h29.27.286,MA Experiment 2,2021.1.2,MacIntel,29.95805872,,,,,,0,8,8,19,1
2.03,response_1,shortValid,TRAITOR,ORNAMENT,,,,,,CONCRETE,ENEMY,long,resources/sound/trials/audio_stim_human67.mp3,60fd295a26f11be0bcb4b13a,25,Female,Right handed,2021-07-27_16h29.27.286,MA Experiment 2,2021.1.2,MacIntel,29.95805872,3,7,109,27,1,,,,,
1.239,response_1,shortFoil,VILLAGE,SPECIALIST,,,,,,MARBLE,CUSTOMER,short,resources/sound/trials/audio_stim_comp65.mp3,60fd295a26f11be0bcb4b13a,25,Female,Right handed,2021-07-27_16h29.27.286,MA Experiment 2,2021.1.2,MacIntel,29.95805872,3,8,110,4,1,,,,,
1.658,response_2,longFoil,SODA,POLICEMAN,,,,,,ROBBER,RATTLESNAKE,short,resources/sound/trials/audio_stim_human64.mp3,60fd295a26f11be0bcb4b13a,25,Female,Right handed,2021-07-27_16h29.27.286,MA Experiment 2,2021.1.2,MacIntel,29.95805872,3,9,111,15,1,,,,,
1.583,response_2,shortFoil,NECKLACE,CANDLELIGHT,,,,,,MINER,EMERALD,short,resources/sound/trials/audio_stim_human6.mp3,60fd295a26f11be0bcb4b13a,25,Female,Right handed,2021-07-27_16h29.27.286,MA Experiment 2,2021.1.2,MacIntel,29.95805872,3,10,112,13,1,,,,,
1.246,response_1,,MEDICINE,AMMONIA,,,,,,VIOLET,LUBRICANT,short,resources/sound/catchTrials/audio_control_human_project07.mp3,60fd295a26f11be0bcb4b13a,25,Female,Right handed,2021-07-27_16h29.27.286,MA Experiment 2,2021.1.2,MacIntel,29.95805872,,,,,,0,5,5,12,1
2.449,response_2,shortFoil,FAIRY,ASBESTOS,,,,,,MINER,EMERALD,short,resources/sound/trials/audio_stim_comp6.mp3,60fd295a26f11be0bcb4b13a,25,Female,Right handed,2021-07-27_16h29.27.286,MA Experiment 2,2021.1.2,MacIntel,29.95805872,3,11,113,1,1,,,,,
1.164,response_2,longFoil,CAPTAIN,PROPELLER,,,,,,SACRED,GALAXY,long,resources/sound/trials/audio_stim_comp1.mp3,60fd295a26f11be0bcb4b13a,25,Female,Right handed,2021-07-27_16h29.27.286,MA Experiment 2,2021.1.2,MacIntel,29.95805872,3,12,114,24,1,,,,,
1.448,response_2,longFoil,EVENING,INFECTION,,,,,,SACRED,GALAXY,short,resources/sound/trials/audio_stim_comp1.mp3,60fd295a26f11be0bcb4b13a,25,Female,Right handed,2021-07-27_16h29.27.286,MA Experiment 2,2021.1.2,MacIntel,29.95805872,3,13,115,7,1,,,,,
1.916,response_1,longFoil,ACRE,MOSQUITO,,,,,,WORKER,VISITOR,long,resources/sound/trials/audio_stim_comp17.mp3,60fd295a26f11be0bcb4b13a,25,Female,Right handed,2021-07-27_16h29.27.286,MA Experiment 2,2021.1.2,MacIntel,29.95805872,3,14,116,23,1,,,,,
1.477,response_2,,FOREARM,RETAILER,,,,,,HOBBY,COLONY,long,resources/sound/catchTrials/audio_control_human_project04.mp3,60fd295a26f11be0bcb4b13a,25,Female,Right handed,2021-07-27_16h29.27.286,MA Experiment 2,2021.1.2,MacIntel,29.95805872,,,,,,0,26,26,27,1
1.381,response_1,longFoil,SHOULDER,ENAMEL,,,,,,BRAINSTORM,GREEN NEEDLE,long,resources/sound/trials/audio_stim_original.mp3,60fd295a26f11be0bcb4b13a,25,Female,Right handed,2021-07-27_16h29.27.286,MA Experiment 2,2021.1.2,MacIntel,29.95805872,3,15,117,33,1,,,,,
1.467,response_2,shortValid,PIANO,POTATO,,,,,,MINER,EMERALD,long,resources/sound/trials/audio_stim_comp6.mp3,60fd295a26f11be0bcb4b13a,25,Female,Right handed,2021-07-27_16h29.27.286,MA Experiment 2,2021.1.2,MacIntel,29.95805872,3,16,118,18,1,,,,,
1.082,response_1,shortValid,OFFICE,AMBULANCE,,,,,,WHISTLE,TREASURER,short,resources/sound/trials/audio_stim_comp12.mp3,60fd295a26f11be0bcb4b13a,25,Female,Right handed,2021-07-27_16h29.27.286,MA Experiment 2,2021.1.2,MacIntel,29.95805872,3,17,119,3,1,,,,,
1.265,response_2,shortFoil,MEASLES,ADMIRAL,,,,,,DRIZZLE,CARDINAL,short,resources/sound/trials/audio_stim_comp69.mp3,60fd295a26f11be0bcb4b13a,25,Female,Right handed,2021-07-27_16h29.27.286,MA Experiment 2,2021.1.2,MacIntel,29.95805872,3,18,120,0,1,,,,,
1.389,response_2,,FEVER,ICICLE,,,,,,BORDER,ALGEBRA,long,resources/sound/catchTrials/audio_control_comp_project00.mp3,60fd295a26f11be0bcb4b13a,25,Female,Right handed,2021-07-27_16h29.27.286,MA Experiment 2,2021.1.2,MacIntel,29.95805872,,,,,,0,10,10,16,1
2.364,response_1,shortFoil,JURY,CAMERA,,,,,,MARBLE,CUSTOMER,long,resources/sound/trials/audio_stim_comp65.mp3,60fd295a26f11be0bcb4b13a,25,Female,Right handed,2021-07-27_16h29.27.286,MA Experiment 2,2021.1.2,MacIntel,29.95805872,3,19,121,21,1,,,,,
1.544,response_1,shortValid,PODIUM,CARNATION,,,,,,DAYLIGHT,MATERIAL,short,resources/sound/trials/audio_stim_human42.mp3,60fd295a26f11be0bcb4b13a,25,Female,Right handed,2021-07-27_16h29.27.286,MA Experiment 2,2021.1.2,MacIntel,29.95805872,3,20,122,9,1,,,,,
0.987,response_1,longFoil,VAPOUR,GYMNASTICS,,,,,,ATHLETE,IVORY,long,resources/sound/trials/audio_stim_comp57.mp3,60fd295a26f11be0bcb4b13a,25,Female,Right handed,2021-07-27_16h29.27.286,MA Experiment 2,2021.1.2,MacIntel,29.95805872,3,21,123,22,1,,,,,
1.654,response_2,longFoil,STOCKING,OXYGEN,,,,,,RUBBER,PROPERTY,long,resources/sound/trials/audio_stim_human0.mp3,60fd295a26f11be0bcb4b13a,25,Female,Right handed,2021-07-27_16h29.27.286,MA Experiment 2,2021.1.2,MacIntel,29.95805872,3,22,124,29,1,,,,,
1.796,response_2,,BISHOP,VINEGAR,,,,,,SPINACH,APRICOT,short,resources/sound/catchTrials/audio_control_comp_project18.mp3,60fd295a26f11be0bcb4b13a,25,Female,Right handed,2021-07-27_16h29.27.286,MA Experiment 2,2021.1.2,MacIntel,29.95805872,,,,,,0,12,12,5,1
1.129,response_2,shortValid,GIRDLE,MESSENGER,,,,,,HARDWARE,OVERCOAT,long,resources/sound/trials/audio_stim_human35.mp3,60fd295a26f11be0bcb4b13a,25,Female,Right handed,2021-07-27_16h29.27.286,MA Experiment 2,2021.1.2,MacIntel,29.95805872,3,23,125,25,1,,,,,
0.998,response_2,longFoil,PERSON,FISHERMAN,,,,,,PARTY,SANCTUARY,long,resources/sound/trials/audio_stim_human50.mp3,60fd295a26f11be0bcb4b13a,25,Female,Right handed,2021-07-27_16h29.27.286,MA Experiment 2,2021.1.2,MacIntel,29.95805872,3,24,126,31,1,,,,,
1.4,response_1,longFoil,BUTTER,PHOTOGRAPH,,,,,,WORKER,VISITOR,short,resources/sound/trials/audio_stim_comp17.mp3,60fd295a26f11be0bcb4b13a,25,Female,Right handed,2021-07-27_16h29.27.286,MA Experiment 2,2021.1.2,MacIntel,29.95805872,3,25,127,6,1,,,,,
2.209,response_1,shortValid,KERNEL,CONVENTION,,,,,,PAINTER,VEHICLE,long,resources/sound/trials/audio_stim_human47.mp3,60fd295a26f11be0bcb4b13a,25,Female,Right handed,2021-07-27_16h29.27.286,MA Experiment 2,2021.1.2,MacIntel,29.95805872,3,26,128,28,1,,,,,
1.036,response_2,,DANCER,MOLECULE,,,,,,IRIS,VIOLIN,short,resources/sound/catchTrials/audio_control_human_project12.mp3,60fd295a26f11be0bcb4b13a,25,Female,Right handed,2021-07-27_16h29.27.286,MA Experiment 2,2021.1.2,MacIntel,29.95805872,,,,,,0,16,16,8,1
1.114,response_1,shortValid,SULPHUR,HEROIN,,,,,,PAINTER,VEHICLE,short,resources/sound/trials/audio_stim_human47.mp3,60fd295a26f11be0bcb4b13a,25,Female,Right handed,2021-07-27_16h29.27.286,MA Experiment 2,2021.1.2,MacIntel,29.95805872,3,27,129,11,1,,,,,
0.732,response_2,shortValid,PATIENT,UMBRELLA,,,,,,MINER,EMERALD,long,resources/sound/trials/audio_stim_human6.mp3,60fd295a26f11be0bcb4b13a,25,Female,Right handed,2021-07-27_16h29.27.286,MA Experiment 2,2021.1.2,MacIntel,29.95805872,3,28,130,30,1,,,,,
2.389,response_4,longFoil,SADDLE,COMMITTEE,,,,,,CONCRETE,ENEMY,short,resources/sound/trials/audio_stim_human67.mp3,60fd295a26f11be0bcb4b13a,25,Female,Right handed,2021-07-27_16h29.27.286,MA Experiment 2,2021.1.2,MacIntel,29.95805872,3,29,131,10,1,,,,,
1.272,response_2,shortValid,EARTHWORM,MERCURY,,,,,,RECEIPT,LIMOUSINE,short,resources/sound/trials/audio_stim_comp40.mp3,60fd295a26f11be0bcb4b13a,25,Female,Right handed,2021-07-27_16h29.27.286,MA Experiment 2,2021.1.2,MacIntel,29.95805872,3,30,132,2,1,,,,,
1.384,response_2,,CRYSTAL,AVENUE,,,,,,IRIS,VIOLIN,long,resources/sound/catchTrials/audio_control_comp_project12.mp3,60fd295a26f11be0bcb4b13a,25,Female,Right handed,2021-07-27_16h29.27.286,MA Experiment 2,2021.1.2,MacIntel,29.95805872,,,,,,0,0,0,20,1
2.314,response_2,shortFoil,CEREAL,LEMONADE,,,,,,DRIZZLE,CARDINAL,long,resources/sound/trials/audio_stim_comp69.mp3,60fd295a26f11be0bcb4b13a,25,Female,Right handed,2021-07-27_16h29.27.286,MA Experiment 2,2021.1.2,MacIntel,29.95805872,3,31,133,17,1,,,,,
1.262,response_2,longValid,INVOICE,CHOCOLATE,,,,,,RUBBER,PROPERTY,short,resources/sound/trials/audio_stim_human0.mp3,60fd295a26f11be0bcb4b13a,25,Female,Right handed,2021-07-27_16h29.27.286,MA Experiment 2,2021.1.2,MacIntel,29.95805872,3,32,134,12,1,,,,,
1.098,response_1,shortFoil,CHIPMUNK,ABDOMEN,,,,,,BRAINSTORM,GREEN NEEDLE,short,resources/sound/trials/audio_stim_original.mp3,60fd295a26f11be0bcb4b13a,25,Female,Right handed,2021-07-27_16h29.27.286,MA Experiment 2,2021.1.2,MacIntel,29.95805872,3,33,135,16,1,,,,,
