response.time,response,cueTarget,rand_foil_1,rand_foil_2,prac_trials.thisRepN,prac_trials.thisTrialN,prac_trials.thisN,prac_trials.thisIndex,prac_trials.ran,word_1,word_2,cue,file_path,participant,age,gender,handedness,date,expName,psychopyVersion,OS,frameRate,trials.thisRepN,trials.thisTrialN,trials.thisN,trials.thisIndex,trials.ran,catchTrials.thisRepN,catchTrials.thisTrialN,catchTrials.thisN,catchTrials.thisIndex,catchTrials.ran
1.563299999,response_2,longValid,SEGMENT,GYMNASTICS,0,0,0,7,1,BUCKLE,WALLABY,long,resources/sound/prac_trials/practice_cue_human7.mp3,60fd26b47fa13cbcd98ad292,19,Female,Right handed,2021-07-26_21h04.57.104,MA Experiment 2,2021.1.2,Win32,59.95563283,,,,,,,,,,
2.643700001,response_1,shortFoil,GIRDLE,DISSECTION,0,1,1,8,1,DAGGER,EMPHASIS,long,resources/sound/prac_trials/practice_cue8.mp3,60fd26b47fa13cbcd98ad292,19,Female,Right handed,2021-07-26_21h04.57.104,MA Experiment 2,2021.1.2,Win32,59.95563283,,,,,,,,,,
1.510299999,response_2,longValid,TWEEZER,PROPELLER,0,2,2,3,1,EAGER,QUALIFY,short,resources/sound/prac_trials/practice_cue_human3.mp3,60fd26b47fa13cbcd98ad292,19,Female,Right handed,2021-07-26_21h04.57.104,MA Experiment 2,2021.1.2,Win32,59.95563283,,,,,,,,,,
1.678099998,response_1,longValid,MURAL,UMBRELLA,0,3,3,10,1,SAFFRON,JAVELIN,long,resources/sound/prac_trials/practice_cue10.mp3,60fd26b47fa13cbcd98ad292,19,Female,Right handed,2021-07-26_21h04.57.104,MA Experiment 2,2021.1.2,Win32,59.95563283,,,,,,,,,,
1.15,response_1,shortValid,DWELLER,STRAWBERRY,0,4,4,11,1,KETCHUP,GONDOLA,long,resources/sound/prac_trials/practice_cue_human11.mp3,60fd26b47fa13cbcd98ad292,19,Female,Right handed,2021-07-26_21h04.57.104,MA Experiment 2,2021.1.2,Win32,59.95563283,,,,,,,,,,
1.361700001,response_2,longFoil,NOVEL,COMMITTEE,0,5,5,1,1,CABLE,REPUBLIC,short,resources/sound/prac_trials/practice_cue_human1.mp3,60fd26b47fa13cbcd98ad292,19,Female,Right handed,2021-07-26_21h04.57.104,MA Experiment 2,2021.1.2,Win32,59.95563283,,,,,,,,,,
1.4941,response_2,shortValid,SADDLE,RETAILER,0,6,6,4,1,FIZZY,ELECTRIC,short,resources/sound/prac_trials/practice_cue4.mp3,60fd26b47fa13cbcd98ad292,19,Female,Right handed,2021-07-26_21h04.57.104,MA Experiment 2,2021.1.2,Win32,59.95563283,,,,,,,,,,
0.9774,response_2,longFoil,STATION,INSTRUMENT,0,7,7,6,1,VACANT,SALVATION,long,resources/sound/prac_trials/practice_cue6.mp3,60fd26b47fa13cbcd98ad292,19,Female,Right handed,2021-07-26_21h04.57.104,MA Experiment 2,2021.1.2,Win32,59.95563283,,,,,,,,,,
1.494300001,response_2,shortValid,MEASLES,BUTTERFLY,0,8,8,2,1,RECENT,TOBACCO,short,resources/sound/prac_trials/practice_cue2.mp3,60fd26b47fa13cbcd98ad292,19,Female,Right handed,2021-07-26_21h04.57.104,MA Experiment 2,2021.1.2,Win32,59.95563283,,,,,,,,,,
1.0489,response_2,shortFoil,CANTEEN,CANDLELIGHT,0,9,9,9,1,GRUMPY,LABYRINTH,long,resources/sound/prac_trials/practice_cue_human9.mp3,60fd26b47fa13cbcd98ad292,19,Female,Right handed,2021-07-26_21h04.57.104,MA Experiment 2,2021.1.2,Win32,59.95563283,,,,,,,,,,
1.715700001,response_1,shortValid,WIRE,TEMPERATURE,0,10,10,0,1,AARDVARK,FALLACY,short,resources/sound/prac_trials/practice_cue0.mp3,60fd26b47fa13cbcd98ad292,19,Female,Right handed,2021-07-26_21h04.57.104,MA Experiment 2,2021.1.2,Win32,59.95563283,,,,,,,,,,
1.227,response_2,longFoil,LIGHTNING,CONVENTION,0,11,11,5,1,NONSENSE,OASIS,short,resources/sound/prac_trials/practice_cue_human5.mp3,60fd26b47fa13cbcd98ad292,19,Female,Right handed,2021-07-26_21h04.57.104,MA Experiment 2,2021.1.2,Win32,59.95563283,,,,,,,,,,
1.0946,response_2,shortFoil,STOCKING,HOSPITAL,,,,,,PARTY,SANCTUARY,short,resources/sound/trials/audio_stim_human50.mp3,60fd26b47fa13cbcd98ad292,19,Female,Right handed,2021-07-26_21h04.57.104,MA Experiment 2,2021.1.2,Win32,59.95563283,0,0,0,14,1,,,,,
1.3989,response_2,longFoil,SINGER,INSTITUTE,,,,,,ROBBER,RATTLESNAKE,long,resources/sound/trials/audio_stim_human64.mp3,60fd26b47fa13cbcd98ad292,19,Female,Right handed,2021-07-26_21h04.57.104,MA Experiment 2,2021.1.2,Win32,59.95563283,0,1,1,32,1,,,,,
1.062300001,response_2,shortFoil,DANCER,GOVERNMENT,,,,,,ROBBER,RATTLESNAKE,short,resources/sound/trials/audio_stim_human64.mp3,60fd26b47fa13cbcd98ad292,19,Female,Right handed,2021-07-26_21h04.57.104,MA Experiment 2,2021.1.2,Win32,59.95563283,0,2,2,15,1,,,,,
1.327800001,response_2,,DOORWAY,LECTURER,,,,,,ICY,JITTERBUG,long,resources/sound/catchTrials/audio_control_comp_project08.mp3,60fd26b47fa13cbcd98ad292,19,Female,Right handed,2021-07-26_21h04.57.104,MA Experiment 2,2021.1.2,Win32,59.95563283,,,,,,0,29,29,23,1
3.146800001,response_2,longFoil,INCOME,APPLIANCE,,,,,,DRIZZLE,CARDINAL,long,resources/sound/trials/audio_stim_comp69.mp3,60fd26b47fa13cbcd98ad292,19,Female,Right handed,2021-07-26_21h04.57.104,MA Experiment 2,2021.1.2,Win32,59.95563283,0,3,3,17,1,,,,,
0.943700001,response_2,longValid,MISTRESS,JANITOR,,,,,,WORKER,VISITOR,long,resources/sound/trials/audio_stim_comp17.mp3,60fd26b47fa13cbcd98ad292,19,Female,Right handed,2021-07-26_21h04.57.104,MA Experiment 2,2021.1.2,Win32,59.95563283,0,4,4,23,1,,,,,
1.376300001,response_1,shortFoil,MURDER,CHOCOLATE,,,,,,MARBLE,CUSTOMER,long,resources/sound/trials/audio_stim_comp65.mp3,60fd26b47fa13cbcd98ad292,19,Female,Right handed,2021-07-26_21h04.57.104,MA Experiment 2,2021.1.2,Win32,59.95563283,0,5,5,21,1,,,,,
1.982200001,response_2,shortFoil,HARBOUR,ALCOHOL,,,,,,WHISTLE,TREASURER,short,resources/sound/trials/audio_stim_comp12.mp3,60fd26b47fa13cbcd98ad292,19,Female,Right handed,2021-07-26_21h04.57.104,MA Experiment 2,2021.1.2,Win32,59.95563283,0,6,6,3,1,,,,,
1.427200001,response_2,,OFFICE,AMBULANCE,,,,,,BORDER,ALGEBRA,short,resources/sound/catchTrials/audio_control_comp_project00.mp3,60fd26b47fa13cbcd98ad292,19,Female,Right handed,2021-07-26_21h04.57.104,MA Experiment 2,2021.1.2,Win32,59.95563283,,,,,,0,6,6,0,1
2.430700001,response_1,longValid,KENNEL,VINEGAR,,,,,,DAYLIGHT,MATERIAL,long,resources/sound/trials/audio_stim_human42.mp3,60fd26b47fa13cbcd98ad292,19,Female,Right handed,2021-07-26_21h04.57.104,MA Experiment 2,2021.1.2,Win32,59.95563283,0,7,7,26,1,,,,,
1.473900002,response_2,longValid,NEIGHBOUR,SAXOPHONE,,,,,,RECEIPT,LIMOUSINE,long,resources/sound/trials/audio_stim_comp40.mp3,60fd26b47fa13cbcd98ad292,19,Female,Right handed,2021-07-26_21h04.57.104,MA Experiment 2,2021.1.2,Win32,59.95563283,0,8,8,19,1,,,,,
1.8295,response_1,shortFoil,WINDOW,PHOTOGRAPH,,,,,,MINER,EMERALD,short,resources/sound/trials/audio_stim_human6.mp3,60fd26b47fa13cbcd98ad292,19,Female,Right handed,2021-07-26_21h04.57.104,MA Experiment 2,2021.1.2,Win32,59.95563283,0,9,9,13,1,,,,,
1.3285,response_1,shortValid,HURDLE,AVENUE,,,,,,SACRED,GALAXY,long,resources/sound/trials/audio_stim_comp1.mp3,60fd26b47fa13cbcd98ad292,19,Female,Right handed,2021-07-26_21h04.57.104,MA Experiment 2,2021.1.2,Win32,59.95563283,0,10,10,24,1,,,,,
1.8784,response_2,,SOFA,ATTENDANT,,,,,,IRIS,VIOLIN,short,resources/sound/catchTrials/audio_control_human_project12.mp3,60fd26b47fa13cbcd98ad292,19,Female,Right handed,2021-07-26_21h04.57.104,MA Experiment 2,2021.1.2,Win32,59.95563283,,,,,,0,28,28,8,1
1.4951,response_1,shortValid,PIPING,INDUSTRY,,,,,,SACRED,GALAXY,short,resources/sound/trials/audio_stim_comp1.mp3,60fd26b47fa13cbcd98ad292,19,Female,Right handed,2021-07-26_21h04.57.104,MA Experiment 2,2021.1.2,Win32,59.95563283,0,11,11,7,1,,,,,
1.260299999,response_2,longValid,SCOOTER,GINGERBREAD,,,,,,DAYLIGHT,MATERIAL,short,resources/sound/trials/audio_stim_human42.mp3,60fd26b47fa13cbcd98ad292,19,Female,Right handed,2021-07-26_21h04.57.104,MA Experiment 2,2021.1.2,Win32,59.95563283,0,12,12,9,1,,,,,
1.4274,response_1,shortValid,JURY,MECHANIC,,,,,,RUBBER,PROPERTY,short,resources/sound/trials/audio_stim_human0.mp3,60fd26b47fa13cbcd98ad292,19,Female,Right handed,2021-07-26_21h04.57.104,MA Experiment 2,2021.1.2,Win32,59.95563283,0,13,13,12,1,,,,,
2.0611,response_2,longFoil,FERTILE,GRASSHOPPER,,,,,,MINER,EMERALD,long,resources/sound/trials/audio_stim_human6.mp3,60fd26b47fa13cbcd98ad292,19,Female,Right handed,2021-07-26_21h04.57.104,MA Experiment 2,2021.1.2,Win32,59.95563283,0,14,14,30,1,,,,,
1.7445,response_1,,RABBI,CLARINET,,,,,,VIOLET,LUBRICANT,short,resources/sound/catchTrials/audio_control_human_project07.mp3,60fd26b47fa13cbcd98ad292,19,Female,Right handed,2021-07-26_21h04.57.104,MA Experiment 2,2021.1.2,Win32,59.95563283,,,,,,0,11,11,12,1
1.847,response_2,longValid,INVOICE,CABINET,,,,,,CONCRETE,ENEMY,short,resources/sound/trials/audio_stim_human67.mp3,60fd26b47fa13cbcd98ad292,19,Female,Right handed,2021-07-26_21h04.57.104,MA Experiment 2,2021.1.2,Win32,59.95563283,0,15,15,10,1,,,,,
2.398799999,response_1,shortValid,VAPOUR,AMMONIA,,,,,,HARDWARE,OVERCOAT,long,resources/sound/trials/audio_stim_human35.mp3,60fd26b47fa13cbcd98ad292,19,Female,Right handed,2021-07-26_21h04.57.104,MA Experiment 2,2021.1.2,Win32,59.95563283,0,16,16,25,1,,,,,
3.275799999,response_1,shortFoil,EVENING,CATHEDRAL,,,,,,ATHLETE,IVORY,short,resources/sound/trials/audio_stim_comp57.mp3,60fd26b47fa13cbcd98ad292,19,Female,Right handed,2021-07-26_21h04.57.104,MA Experiment 2,2021.1.2,Win32,59.95563283,0,17,17,5,1,,,,,
2.044700001,response_2,shortFoil,MORNING,CROCODILE,,,,,,HARDWARE,OVERCOAT,short,resources/sound/trials/audio_stim_human35.mp3,60fd26b47fa13cbcd98ad292,19,Female,Right handed,2021-07-26_21h04.57.104,MA Experiment 2,2021.1.2,Win32,59.95563283,0,18,18,8,1,,,,,
1.4619,response_2,,DECOY,GORILLA,,,,,,IRIS,VIOLIN,long,resources/sound/catchTrials/audio_control_comp_project12.mp3,60fd26b47fa13cbcd98ad292,19,Female,Right handed,2021-07-26_21h04.57.104,MA Experiment 2,2021.1.2,Win32,59.95563283,,,,,,0,20,20,20,1
0.645299999,response_2,longFoil,SHEEPSKIN,FAMILY,,,,,,RECEIPT,LIMOUSINE,short,resources/sound/trials/audio_stim_comp40.mp3,60fd26b47fa13cbcd98ad292,19,Female,Right handed,2021-07-26_21h04.57.104,MA Experiment 2,2021.1.2,Win32,59.95563283,0,19,19,2,1,,,,,
3.9089,,longFoil,LIQUID,MESSENGER,,,,,,PAINTER,VEHICLE,short,resources/sound/trials/audio_stim_human47.mp3,60fd26b47fa13cbcd98ad292,19,Female,Right handed,2021-07-26_21h04.57.104,MA Experiment 2,2021.1.2,Win32,59.95563283,0,20,20,11,1,,,,,
1.6264,response_2,longValid,SHOULDER,BEVERAGE,,,,,,MINER,EMERALD,long,resources/sound/trials/audio_stim_comp6.mp3,60fd26b47fa13cbcd98ad292,19,Female,Right handed,2021-07-26_21h04.57.104,MA Experiment 2,2021.1.2,Win32,59.95563283,0,21,21,18,1,,,,,
0.6446,response_2,longValid,SULPHUR,LEMONADE,,,,,,WORKER,VISITOR,short,resources/sound/trials/audio_stim_comp17.mp3,60fd26b47fa13cbcd98ad292,19,Female,Right handed,2021-07-26_21h04.57.104,MA Experiment 2,2021.1.2,Win32,59.95563283,0,22,22,6,1,,,,,
1.3934,response_1,,CIGAR,FISHERMAN,,,,,,JUGGLER,DANDELION,long,resources/sound/catchTrials/audio_control_human_project09.mp3,60fd26b47fa13cbcd98ad292,19,Female,Right handed,2021-07-26_21h04.57.104,MA Experiment 2,2021.1.2,Win32,59.95563283,,,,,,0,19,19,31,1
1.610300001,response_2,shortFoil,HAMSTER,PROFESSOR,,,,,,BRAINSTORM,GREEN NEEDLE,long,resources/sound/trials/audio_stim_original.mp3,60fd26b47fa13cbcd98ad292,19,Female,Right handed,2021-07-26_21h04.57.104,MA Experiment 2,2021.1.2,Win32,59.95563283,0,23,23,33,1,,,,,
1.260699999,response_2,shortFoil,ANCHOR,HEADQUARTERS,,,,,,WHISTLE,TREASURER,long,resources/sound/trials/audio_stim_comp12.mp3,60fd26b47fa13cbcd98ad292,19,Female,Right handed,2021-07-26_21h04.57.104,MA Experiment 2,2021.1.2,Win32,59.95563283,0,24,24,20,1,,,,,
0.910800001,response_2,longValid,MOONLIGHT,CORRIDOR,,,,,,MINER,EMERALD,short,resources/sound/trials/audio_stim_comp6.mp3,60fd26b47fa13cbcd98ad292,19,Female,Right handed,2021-07-26_21h04.57.104,MA Experiment 2,2021.1.2,Win32,59.95563283,0,25,25,1,1,,,,,
0.6449,response_1,shortFoil,DIVING,ACROBAT,,,,,,ATHLETE,IVORY,long,resources/sound/trials/audio_stim_comp57.mp3,60fd26b47fa13cbcd98ad292,19,Female,Right handed,2021-07-26_21h04.57.104,MA Experiment 2,2021.1.2,Win32,59.95563283,0,26,26,22,1,,,,,
0.726800001,response_2,,HAMMER,INJURY,,,,,,IRIS,VIOLIN,long,resources/sound/catchTrials/audio_control_human_project12.mp3,60fd26b47fa13cbcd98ad292,19,Female,Right handed,2021-07-26_21h04.57.104,MA Experiment 2,2021.1.2,Win32,59.95563283,,,,,,0,18,18,24,1
2.2429,response_1,longFoil,CURFEW,HONEYMOON,,,,,,MARBLE,CUSTOMER,short,resources/sound/trials/audio_stim_comp65.mp3,60fd26b47fa13cbcd98ad292,19,Female,Right handed,2021-07-26_21h04.57.104,MA Experiment 2,2021.1.2,Win32,59.95563283,0,27,27,4,1,,,,,
1.710299999,response_1,longFoil,NECKLACE,REFEREE,,,,,,CONCRETE,ENEMY,long,resources/sound/trials/audio_stim_human67.mp3,60fd26b47fa13cbcd98ad292,19,Female,Right handed,2021-07-26_21h04.57.104,MA Experiment 2,2021.1.2,Win32,59.95563283,0,28,28,27,1,,,,,
1.561199999,response_1,shortValid,FOREARM,ICICLE,,,,,,PAINTER,VEHICLE,long,resources/sound/trials/audio_stim_human47.mp3,60fd26b47fa13cbcd98ad292,19,Female,Right handed,2021-07-26_21h04.57.104,MA Experiment 2,2021.1.2,Win32,59.95563283,0,29,29,28,1,,,,,
1.3605,response_2,longFoil,PATIENT,MINERAL,,,,,,PARTY,SANCTUARY,long,resources/sound/trials/audio_stim_human50.mp3,60fd26b47fa13cbcd98ad292,19,Female,Right handed,2021-07-26_21h04.57.104,MA Experiment 2,2021.1.2,Win32,59.95563283,0,30,30,31,1,,,,,
2.477299999,response_2,,MEDICINE,ATHLETICS,,,,,,CORNER,ENGINEER,long,resources/sound/catchTrials/audio_control_comp_project14.mp3,60fd26b47fa13cbcd98ad292,19,Female,Right handed,2021-07-26_21h04.57.104,MA Experiment 2,2021.1.2,Win32,59.95563283,,,,,,0,5,5,17,1
1.3941,response_1,shortValid,DIAL,MERCURY,,,,,,RUBBER,PROPERTY,long,resources/sound/trials/audio_stim_human0.mp3,60fd26b47fa13cbcd98ad292,19,Female,Right handed,2021-07-26_21h04.57.104,MA Experiment 2,2021.1.2,Win32,59.95563283,0,31,31,29,1,,,,,
1.826299999,,shortValid,CABIN,SETTLEMENT,,,,,,DRIZZLE,CARDINAL,short,resources/sound/trials/audio_stim_comp69.mp3,60fd26b47fa13cbcd98ad292,19,Female,Right handed,2021-07-26_21h04.57.104,MA Experiment 2,2021.1.2,Win32,59.95563283,0,32,32,0,1,,,,,
0.977700001,response_2,shortFoil,BURNER,OPENING,,,,,,BRAINSTORM,GREEN NEEDLE,short,resources/sound/trials/audio_stim_original.mp3,60fd26b47fa13cbcd98ad292,19,Female,Right handed,2021-07-26_21h04.57.104,MA Experiment 2,2021.1.2,Win32,59.95563283,0,33,33,16,1,,,,,
1.010299999,response_2,shortFoil,TEMPLE,INTERVIEW,,,,,,MINER,EMERALD,short,resources/sound/trials/audio_stim_comp6.mp3,60fd26b47fa13cbcd98ad292,19,Female,Right handed,2021-07-26_21h04.57.104,MA Experiment 2,2021.1.2,Win32,59.95563283,1,0,34,1,1,,,,,
2.359700001,response_2,longFoil,TRAITOR,GALLERY,,,,,,WHISTLE,TREASURER,long,resources/sound/trials/audio_stim_comp12.mp3,60fd26b47fa13cbcd98ad292,19,Female,Right handed,2021-07-26_21h04.57.104,MA Experiment 2,2021.1.2,Win32,59.95563283,1,1,35,20,1,,,,,
1.361,response_2,longValid,KETTLE,EMULSION,,,,,,DRIZZLE,CARDINAL,short,resources/sound/trials/audio_stim_comp69.mp3,60fd26b47fa13cbcd98ad292,19,Female,Right handed,2021-07-26_21h04.57.104,MA Experiment 2,2021.1.2,Win32,59.95563283,1,2,36,0,1,,,,,
1.710199999,response_2,,BEETLE,SPECIALIST,,,,,,HOBBY,COLONY,short,resources/sound/catchTrials/audio_control_human_project04.mp3,60fd26b47fa13cbcd98ad292,19,Female,Right handed,2021-07-26_21h04.57.104,MA Experiment 2,2021.1.2,Win32,59.95563283,,,,,,0,3,3,11,1
2.010200001,response_1,shortFoil,PICTURE,CITIZEN,,,,,,CONCRETE,ENEMY,long,resources/sound/trials/audio_stim_human67.mp3,60fd26b47fa13cbcd98ad292,19,Female,Right handed,2021-07-26_21h04.57.104,MA Experiment 2,2021.1.2,Win32,59.95563283,1,3,37,27,1,,,,,
1.860300001,response_2,shortValid,SODA,MEDICINE,,,,,,PARTY,SANCTUARY,long,resources/sound/trials/audio_stim_human50.mp3,60fd26b47fa13cbcd98ad292,19,Female,Right handed,2021-07-26_21h04.57.104,MA Experiment 2,2021.1.2,Win32,59.95563283,1,4,38,31,1,,,,,
2.61,response_1,longFoil,BERRY,POTATO,,,,,,WHISTLE,TREASURER,short,resources/sound/trials/audio_stim_comp12.mp3,60fd26b47fa13cbcd98ad292,19,Female,Right handed,2021-07-26_21h04.57.104,MA Experiment 2,2021.1.2,Win32,59.95563283,1,5,39,3,1,,,,,
1.793800001,response_1,longFoil,NURSERY,TANGERINE,,,,,,WORKER,VISITOR,long,resources/sound/trials/audio_stim_comp17.mp3,60fd26b47fa13cbcd98ad292,19,Female,Right handed,2021-07-26_21h04.57.104,MA Experiment 2,2021.1.2,Win32,59.95563283,1,6,40,23,1,,,,,
1.477,response_2,,WRITING,MINISTER,,,,,,HOBBY,COLONY,long,resources/sound/catchTrials/audio_control_comp_project04.mp3,60fd26b47fa13cbcd98ad292,19,Female,Right handed,2021-07-26_21h04.57.104,MA Experiment 2,2021.1.2,Win32,59.95563283,,,,,,0,25,25,18,1
1.011800001,response_2,shortValid,CEREAL,ADMIRAL,,,,,,RECEIPT,LIMOUSINE,long,resources/sound/trials/audio_stim_comp40.mp3,60fd26b47fa13cbcd98ad292,19,Female,Right handed,2021-07-26_21h04.57.104,MA Experiment 2,2021.1.2,Win32,59.95563283,1,7,41,19,1,,,,,
1.876799999,response_2,shortFoil,CAPTAIN,ENVELOPE,,,,,,RUBBER,PROPERTY,short,resources/sound/trials/audio_stim_human0.mp3,60fd26b47fa13cbcd98ad292,19,Female,Right handed,2021-07-26_21h04.57.104,MA Experiment 2,2021.1.2,Win32,59.95563283,1,8,42,12,1,,,,,
1.7111,response_2,longValid,UNCLE,INSTRUCTOR,,,,,,BRAINSTORM,GREEN NEEDLE,long,resources/sound/trials/audio_stim_original.mp3,60fd26b47fa13cbcd98ad292,19,Female,Right handed,2021-07-26_21h04.57.104,MA Experiment 2,2021.1.2,Win32,59.95563283,1,9,43,33,1,,,,,
1.726299999,response_2,longValid,NATIVE,MONUMENT,,,,,,ROBBER,RATTLESNAKE,short,resources/sound/trials/audio_stim_human64.mp3,60fd26b47fa13cbcd98ad292,19,Female,Right handed,2021-07-26_21h04.57.104,MA Experiment 2,2021.1.2,Win32,59.95563283,1,10,44,15,1,,,,,
1.793799999,response_2,,BUTTER,HANDKERCHIEF,,,,,,JOURNAL,ROBBERY,short,resources/sound/catchTrials/audio_control_human_project02.mp3,60fd26b47fa13cbcd98ad292,19,Female,Right handed,2021-07-26_21h04.57.104,MA Experiment 2,2021.1.2,Win32,59.95563283,,,,,,0,15,15,13,1
1.9931,response_2,longValid,TORTURE,CINNAMON,,,,,,SACRED,GALAXY,long,resources/sound/trials/audio_stim_comp1.mp3,60fd26b47fa13cbcd98ad292,19,Female,Right handed,2021-07-26_21h04.57.104,MA Experiment 2,2021.1.2,Win32,59.95563283,1,11,45,24,1,,,,,
0.644800001,response_2,longValid,MUSCLE,MOSQUITO,,,,,,SACRED,GALAXY,short,resources/sound/trials/audio_stim_comp1.mp3,60fd26b47fa13cbcd98ad292,19,Female,Right handed,2021-07-26_21h04.57.104,MA Experiment 2,2021.1.2,Win32,59.95563283,1,12,46,7,1,,,,,
1.677199999,response_1,shortValid,FATHER,NEWSPAPER,,,,,,MARBLE,CUSTOMER,short,resources/sound/trials/audio_stim_comp65.mp3,60fd26b47fa13cbcd98ad292,19,Female,Right handed,2021-07-26_21h04.57.104,MA Experiment 2,2021.1.2,Win32,59.95563283,1,13,47,4,1,,,,,
1.927299999,response_2,shortFoil,PRINCESS,HURRICANE,,,,,,RUBBER,PROPERTY,long,resources/sound/trials/audio_stim_human0.mp3,60fd26b47fa13cbcd98ad292,19,Female,Right handed,2021-07-26_21h04.57.104,MA Experiment 2,2021.1.2,Win32,59.95563283,1,14,48,29,1,,,,,
1.927800001,response_2,,NAPKIN,POLICEMAN,,,,,,IRIS,VIOLIN,short,resources/sound/catchTrials/audio_control_comp_project12.mp3,60fd26b47fa13cbcd98ad292,19,Female,Right handed,2021-07-26_21h04.57.104,MA Experiment 2,2021.1.2,Win32,59.95563283,,,,,,0,9,9,4,1
1.7109,response_2,shortFoil,VILLAGE,FACTORY,,,,,,MINER,EMERALD,long,resources/sound/trials/audio_stim_comp6.mp3,60fd26b47fa13cbcd98ad292,19,Female,Right handed,2021-07-26_21h04.57.104,MA Experiment 2,2021.1.2,Win32,59.95563283,1,15,49,18,1,,,,,
1.5445,response_1,shortValid,CRYSTAL,HEROIN,,,,,,PAINTER,VEHICLE,short,resources/sound/trials/audio_stim_human47.mp3,60fd26b47fa13cbcd98ad292,19,Female,Right handed,2021-07-26_21h04.57.104,MA Experiment 2,2021.1.2,Win32,59.95563283,1,16,50,11,1,,,,,
0.9775,response_1,shortValid,WALRUS,ENAMEL,,,,,,WORKER,VISITOR,short,resources/sound/trials/audio_stim_comp17.mp3,60fd26b47fa13cbcd98ad292,19,Female,Right handed,2021-07-26_21h04.57.104,MA Experiment 2,2021.1.2,Win32,59.95563283,1,17,51,6,1,,,,,
1.444,response_1,shortValid,LEADER,ALPHABET,,,,,,DAYLIGHT,MATERIAL,long,resources/sound/trials/audio_stim_human42.mp3,60fd26b47fa13cbcd98ad292,19,Female,Right handed,2021-07-26_21h04.57.104,MA Experiment 2,2021.1.2,Win32,59.95563283,1,18,52,26,1,,,,,
1.4776,response_2,,KERNEL,ANTIQUE,,,,,,JOURNAL,ROBBERY,long,resources/sound/catchTrials/audio_control_human_project02.mp3,60fd26b47fa13cbcd98ad292,19,Female,Right handed,2021-07-26_21h04.57.104,MA Experiment 2,2021.1.2,Win32,59.95563283,,,,,,0,14,14,29,1
0.8114,response_2,longValid,PERSON,INFECTION,,,,,,MINER,EMERALD,short,resources/sound/trials/audio_stim_human6.mp3,60fd26b47fa13cbcd98ad292,19,Female,Right handed,2021-07-26_21h04.57.104,MA Experiment 2,2021.1.2,Win32,59.95563283,1,19,53,13,1,,,,,
0.745700001,response_1,shortValid,GRADUATE,ORNAMENT,,,,,,CONCRETE,ENEMY,short,resources/sound/trials/audio_stim_human67.mp3,60fd26b47fa13cbcd98ad292,19,Female,Right handed,2021-07-26_21h04.57.104,MA Experiment 2,2021.1.2,Win32,59.95563283,1,20,54,10,1,,,,,
0.9611,response_2,shortFoil,DUEL,ASBESTOS,,,,,,MINER,EMERALD,long,resources/sound/trials/audio_stim_human6.mp3,60fd26b47fa13cbcd98ad292,19,Female,Right handed,2021-07-26_21h04.57.104,MA Experiment 2,2021.1.2,Win32,59.95563283,1,21,55,30,1,,,,,
0.710300001,response_2,shortValid,LOBSTER,DESTROYER,,,,,,ROBBER,RATTLESNAKE,long,resources/sound/trials/audio_stim_human64.mp3,60fd26b47fa13cbcd98ad292,19,Female,Right handed,2021-07-26_21h04.57.104,MA Experiment 2,2021.1.2,Win32,59.95563283,1,22,56,32,1,,,,,
1.777299999,response_1,,VALLEY,POLIO,,,,,,POISON,REVOLVER,long,resources/sound/catchTrials/audio_control_human_project01.mp3,60fd26b47fa13cbcd98ad292,19,Female,Right handed,2021-07-26_21h04.57.104,MA Experiment 2,2021.1.2,Win32,59.95563283,,,,,,0,10,10,25,1
1.4774,response_2,shortValid,RUSTY,NEIGHBOURHOOD,,,,,,DRIZZLE,CARDINAL,long,resources/sound/trials/audio_stim_comp69.mp3,60fd26b47fa13cbcd98ad292,19,Female,Right handed,2021-07-26_21h04.57.104,MA Experiment 2,2021.1.2,Win32,59.95563283,1,23,57,17,1,,,,,
1.844199999,response_2,longValid,PIANO,MOLECULE,,,,,,HARDWARE,OVERCOAT,short,resources/sound/trials/audio_stim_human35.mp3,60fd26b47fa13cbcd98ad292,19,Female,Right handed,2021-07-26_21h04.57.104,MA Experiment 2,2021.1.2,Win32,59.95563283,1,24,58,8,1,,,,,
1.6431,response_1,shortValid,BISHOP,ABDOMEN,,,,,,MARBLE,CUSTOMER,long,resources/sound/trials/audio_stim_comp65.mp3,60fd26b47fa13cbcd98ad292,19,Female,Right handed,2021-07-26_21h04.57.104,MA Experiment 2,2021.1.2,Win32,59.95563283,1,25,59,21,1,,,,,
1.627200001,response_1,shortValid,EARTHWORM,CAMERA,,,,,,PARTY,SANCTUARY,short,resources/sound/trials/audio_stim_human50.mp3,60fd26b47fa13cbcd98ad292,19,Female,Right handed,2021-07-26_21h04.57.104,MA Experiment 2,2021.1.2,Win32,59.95563283,1,26,60,14,1,,,,,
1.910200001,response_2,,VESSEL,MICROSCOPE,,,,,,NAVY,RECTANGLE,short,resources/sound/catchTrials/audio_control_human_project06.mp3,60fd26b47fa13cbcd98ad292,19,Female,Right handed,2021-07-26_21h04.57.104,MA Experiment 2,2021.1.2,Win32,59.95563283,,,,,,0,7,7,14,1
1.5439,response_1,longValid,TUMBLE,PHYSICIAN,,,,,,PAINTER,VEHICLE,long,resources/sound/trials/audio_stim_human47.mp3,60fd26b47fa13cbcd98ad292,19,Female,Right handed,2021-07-26_21h04.57.104,MA Experiment 2,2021.1.2,Win32,59.95563283,1,27,61,28,1,,,,,
1.460799999,response_1,shortValid,FEVER,CIGARETTE,,,,,,DAYLIGHT,MATERIAL,short,resources/sound/trials/audio_stim_human42.mp3,60fd26b47fa13cbcd98ad292,19,Female,Right handed,2021-07-26_21h04.57.104,MA Experiment 2,2021.1.2,Win32,59.95563283,1,28,62,9,1,,,,,
1.193900002,response_2,longFoil,ACRE,FIREWOOD,,,,,,BRAINSTORM,GREEN NEEDLE,short,resources/sound/trials/audio_stim_original.mp3,60fd26b47fa13cbcd98ad292,19,Female,Right handed,2021-07-26_21h04.57.104,MA Experiment 2,2021.1.2,Win32,59.95563283,1,29,63,16,1,,,,,
0.659799999,response_1,longValid,OLIVE,CAPITAL,,,,,,ATHLETE,IVORY,long,resources/sound/trials/audio_stim_comp57.mp3,60fd26b47fa13cbcd98ad292,19,Female,Right handed,2021-07-26_21h04.57.104,MA Experiment 2,2021.1.2,Win32,59.95563283,1,30,64,22,1,,,,,
1.4279,response_1,,FAIRY,PROJECTOR,,,,,,VIOLET,LUBRICANT,short,resources/sound/catchTrials/audio_control_comp_project07.mp3,60fd26b47fa13cbcd98ad292,19,Female,Right handed,2021-07-26_21h04.57.104,MA Experiment 2,2021.1.2,Win32,59.95563283,,,,,,0,30,30,3,1
1.811,response_1,shortValid,WAFER,OXYGEN,,,,,,ATHLETE,IVORY,short,resources/sound/trials/audio_stim_comp57.mp3,60fd26b47fa13cbcd98ad292,19,Female,Right handed,2021-07-26_21h04.57.104,MA Experiment 2,2021.1.2,Win32,59.95563283,1,31,65,5,1,,,,,
1.993200001,response_2,shortFoil,POLO,FURNITURE,,,,,,RECEIPT,LIMOUSINE,short,resources/sound/trials/audio_stim_comp40.mp3,60fd26b47fa13cbcd98ad292,19,Female,Right handed,2021-07-26_21h04.57.104,MA Experiment 2,2021.1.2,Win32,59.95563283,1,32,66,2,1,,,,,
1.611400002,response_2,shortFoil,PODIUM,CARNATION,,,,,,HARDWARE,OVERCOAT,long,resources/sound/trials/audio_stim_human35.mp3,60fd26b47fa13cbcd98ad292,19,Female,Right handed,2021-07-26_21h04.57.104,MA Experiment 2,2021.1.2,Win32,59.95563283,1,33,67,25,1,,,,,
1.660299999,response_2,longFoil,CHIPMUNK,DIAMOND,,,,,,SACRED,GALAXY,long,resources/sound/trials/audio_stim_comp1.mp3,60fd26b47fa13cbcd98ad292,19,Female,Right handed,2021-07-26_21h04.57.104,MA Experiment 2,2021.1.2,Win32,59.95563283,2,0,68,24,1,,,,,
1.5945,response_2,shortFoil,SEGMENT,CABINET,,,,,,ROBBER,RATTLESNAKE,long,resources/sound/trials/audio_stim_human64.mp3,60fd26b47fa13cbcd98ad292,19,Female,Right handed,2021-07-26_21h04.57.104,MA Experiment 2,2021.1.2,Win32,59.95563283,2,1,69,32,1,,,,,
1.6444,response_2,longFoil,PODIUM,ADMIRAL,,,,,,RECEIPT,LIMOUSINE,long,resources/sound/trials/audio_stim_comp40.mp3,60fd26b47fa13cbcd98ad292,19,Female,Right handed,2021-07-26_21h04.57.104,MA Experiment 2,2021.1.2,Win32,59.95563283,2,2,70,19,1,,,,,
1.676700001,response_1,,POLO,CORRIDOR,,,,,,POISON,REVOLVER,short,resources/sound/catchTrials/audio_control_human_project01.mp3,60fd26b47fa13cbcd98ad292,19,Female,Right handed,2021-07-26_21h04.57.104,MA Experiment 2,2021.1.2,Win32,59.95563283,,,,,,0,0,0,9,1
1.627,response_2,shortValid,MURDER,MINISTER,,,,,,MINER,EMERALD,short,resources/sound/trials/audio_stim_human6.mp3,60fd26b47fa13cbcd98ad292,19,Female,Right handed,2021-07-26_21h04.57.104,MA Experiment 2,2021.1.2,Win32,59.95563283,2,3,71,13,1,,,,,
1.661200001,response_1,longFoil,SADDLE,GINGERBREAD,,,,,,WORKER,VISITOR,short,resources/sound/trials/audio_stim_comp17.mp3,60fd26b47fa13cbcd98ad292,19,Female,Right handed,2021-07-26_21h04.57.104,MA Experiment 2,2021.1.2,Win32,59.95563283,2,4,72,6,1,,,,,
2.092200001,response_1,longValid,WALRUS,HANDKERCHIEF,,,,,,WHISTLE,TREASURER,short,resources/sound/trials/audio_stim_comp12.mp3,60fd26b47fa13cbcd98ad292,19,Female,Right handed,2021-07-26_21h04.57.104,MA Experiment 2,2021.1.2,Win32,59.95563283,2,5,73,3,1,,,,,
1.7434,response_1,shortValid,LIGHTNING,ANTIQUE,,,,,,WORKER,VISITOR,long,resources/sound/trials/audio_stim_comp17.mp3,60fd26b47fa13cbcd98ad292,19,Female,Right handed,2021-07-26_21h04.57.104,MA Experiment 2,2021.1.2,Win32,59.95563283,2,6,74,23,1,,,,,
0.694799999,response_2,,FEVER,GYMNASTICS,,,,,,NAVY,RECTANGLE,long,resources/sound/catchTrials/audio_control_human_project06.mp3,60fd26b47fa13cbcd98ad292,19,Female,Right handed,2021-07-26_21h04.57.104,MA Experiment 2,2021.1.2,Win32,59.95563283,,,,,,0,23,23,30,1
0.6274,response_2,longValid,BURNER,MECHANIC,,,,,,MARBLE,CUSTOMER,short,resources/sound/trials/audio_stim_comp65.mp3,60fd26b47fa13cbcd98ad292,19,Female,Right handed,2021-07-26_21h04.57.104,MA Experiment 2,2021.1.2,Win32,59.95563283,2,7,75,4,1,,,,,
1.793799999,response_2,shortFoil,GRADUATE,AVENUE,,,,,,DRIZZLE,CARDINAL,long,resources/sound/trials/audio_stim_comp69.mp3,60fd26b47fa13cbcd98ad292,19,Female,Right handed,2021-07-26_21h04.57.104,MA Experiment 2,2021.1.2,Win32,59.95563283,2,8,76,17,1,,,,,
1.511,response_2,shortValid,MEDICINE,INDUSTRY,,,,,,BRAINSTORM,GREEN NEEDLE,long,resources/sound/trials/audio_stim_original.mp3,60fd26b47fa13cbcd98ad292,19,Female,Right handed,2021-07-26_21h04.57.104,MA Experiment 2,2021.1.2,Win32,59.95563283,2,9,77,33,1,,,,,
0.8114,response_1,longFoil,PATIENT,FAMILY,,,,,,DAYLIGHT,MATERIAL,long,resources/sound/trials/audio_stim_human42.mp3,60fd26b47fa13cbcd98ad292,19,Female,Right handed,2021-07-26_21h04.57.104,MA Experiment 2,2021.1.2,Win32,59.95563283,2,10,78,26,1,,,,,
1.559700001,response_1,,CIGAR,STRAWBERRY,,,,,,VIOLET,LUBRICANT,long,resources/sound/catchTrials/audio_control_human_project07.mp3,60fd26b47fa13cbcd98ad292,19,Female,Right handed,2021-07-26_21h04.57.104,MA Experiment 2,2021.1.2,Win32,59.95563283,,,,,,0,17,17,28,1
0.628900002,response_1,longFoil,CRYSTAL,HEADQUARTERS,,,,,,PAINTER,VEHICLE,long,resources/sound/trials/audio_stim_human47.mp3,60fd26b47fa13cbcd98ad292,19,Female,Right handed,2021-07-26_21h04.57.104,MA Experiment 2,2021.1.2,Win32,59.95563283,2,11,79,28,1,,,,,
1.7104,response_2,longValid,FATHER,INSTRUCTOR,,,,,,MARBLE,CUSTOMER,long,resources/sound/trials/audio_stim_comp65.mp3,60fd26b47fa13cbcd98ad292,19,Female,Right handed,2021-07-26_21h04.57.104,MA Experiment 2,2021.1.2,Win32,59.95563283,2,12,80,21,1,,,,,
1.794400002,response_1,longFoil,PIPING,MEDICINE,,,,,,DAYLIGHT,MATERIAL,short,resources/sound/trials/audio_stim_human42.mp3,60fd26b47fa13cbcd98ad292,19,Female,Right handed,2021-07-26_21h04.57.104,MA Experiment 2,2021.1.2,Win32,59.95563283,2,13,81,9,1,,,,,
0.7784,response_2,shortValid,DIAL,OXYGEN,,,,,,MINER,EMERALD,long,resources/sound/trials/audio_stim_comp6.mp3,60fd26b47fa13cbcd98ad292,19,Female,Right handed,2021-07-26_21h04.57.104,MA Experiment 2,2021.1.2,Win32,59.95563283,2,14,82,18,1,,,,,
1.877199999,response_2,,DWELLER,NEWSPAPER,,,,,,HOBBY,COLONY,short,resources/sound/catchTrials/audio_control_comp_project04.mp3,60fd26b47fa13cbcd98ad292,19,Female,Right handed,2021-07-26_21h04.57.104,MA Experiment 2,2021.1.2,Win32,59.95563283,,,,,,0,8,8,2,1
0.6444,response_2,shortValid,LIQUID,GRASSHOPPER,,,,,,ROBBER,RATTLESNAKE,short,resources/sound/trials/audio_stim_human64.mp3,60fd26b47fa13cbcd98ad292,19,Female,Right handed,2021-07-26_21h04.57.104,MA Experiment 2,2021.1.2,Win32,59.95563283,2,15,83,15,1,,,,,
1.9114,response_2,shortValid,STOCKING,PROFESSOR,,,,,,MINER,EMERALD,short,resources/sound/trials/audio_stim_comp6.mp3,60fd26b47fa13cbcd98ad292,19,Female,Right handed,2021-07-26_21h04.57.104,MA Experiment 2,2021.1.2,Win32,59.95563283,2,16,84,1,1,,,,,
1.8609,response_1,shortValid,SHEEPSKIN,MESSENGER,,,,,,WHISTLE,TREASURER,long,resources/sound/trials/audio_stim_comp12.mp3,60fd26b47fa13cbcd98ad292,19,Female,Right handed,2021-07-26_21h04.57.104,MA Experiment 2,2021.1.2,Win32,59.95563283,2,17,85,20,1,,,,,
0.5791,response_2,longFoil,WRITING,UMBRELLA,,,,,,RUBBER,PROPERTY,long,resources/sound/trials/audio_stim_human0.mp3,60fd26b47fa13cbcd98ad292,19,Female,Right handed,2021-07-26_21h04.57.104,MA Experiment 2,2021.1.2,Win32,59.95563283,2,18,86,29,1,,,,,
1.9439,response_2,,KERNEL,DISSECTION,,,,,,SPINACH,APRICOT,long,resources/sound/catchTrials/audio_control_comp_project18.mp3,60fd26b47fa13cbcd98ad292,19,Female,Right handed,2021-07-26_21h04.57.104,MA Experiment 2,2021.1.2,Win32,59.95563283,,,,,,0,16,16,21,1
1.460599998,response_2,longFoil,RUSTY,NEIGHBOURHOOD,,,,,,DRIZZLE,CARDINAL,short,resources/sound/trials/audio_stim_comp69.mp3,60fd26b47fa13cbcd98ad292,19,Female,Right handed,2021-07-26_21h04.57.104,MA Experiment 2,2021.1.2,Win32,59.95563283,2,19,87,0,1,,,,,
1.2441,response_2,longValid,CURFEW,ACROBAT,,,,,,HARDWARE,OVERCOAT,long,resources/sound/trials/audio_stim_human35.mp3,60fd26b47fa13cbcd98ad292,19,Female,Right handed,2021-07-26_21h04.57.104,MA Experiment 2,2021.1.2,Win32,59.95563283,2,20,88,25,1,,,,,
1.360799999,response_1,longFoil,OFFICE,LECTURER,,,,,,ATHLETE,IVORY,short,resources/sound/trials/audio_stim_comp57.mp3,60fd26b47fa13cbcd98ad292,19,Female,Right handed,2021-07-26_21h04.57.104,MA Experiment 2,2021.1.2,Win32,59.95563283,2,21,89,5,1,,,,,
2.1604,response_2,longFoil,MEASLES,ALCOHOL,,,,,,RUBBER,PROPERTY,short,resources/sound/trials/audio_stim_human0.mp3,60fd26b47fa13cbcd98ad292,19,Female,Right handed,2021-07-26_21h04.57.104,MA Experiment 2,2021.1.2,Win32,59.95563283,2,22,90,12,1,,,,,
1.510800001,response_2,,DIVING,ORNAMENT,,,,,,CORNER,ENGINEER,short,resources/sound/catchTrials/audio_control_comp_project14.mp3,60fd26b47fa13cbcd98ad292,19,Female,Right handed,2021-07-26_21h04.57.104,MA Experiment 2,2021.1.2,Win32,59.95563283,,,,,,0,26,26,1,1
0.561599998,response_2,longValid,DANCER,PROJECTOR,,,,,,RECEIPT,LIMOUSINE,short,resources/sound/trials/audio_stim_comp40.mp3,60fd26b47fa13cbcd98ad292,19,Female,Right handed,2021-07-26_21h04.57.104,MA Experiment 2,2021.1.2,Win32,59.95563283,2,23,91,2,1,,,,,
0.6615,response_1,shortValid,DECOY,FIREWOOD,,,,,,CONCRETE,ENEMY,long,resources/sound/trials/audio_stim_human67.mp3,60fd26b47fa13cbcd98ad292,19,Female,Right handed,2021-07-26_21h04.57.104,MA Experiment 2,2021.1.2,Win32,59.95563283,2,24,92,27,1,,,,,
1.764099998,response_1,longFoil,TWEEZER,INJURY,,,,,,CONCRETE,ENEMY,short,resources/sound/trials/audio_stim_human67.mp3,60fd26b47fa13cbcd98ad292,19,Female,Right handed,2021-07-26_21h04.57.104,MA Experiment 2,2021.1.2,Win32,59.95563283,2,25,93,10,1,,,,,
2.209199999,response_2,longValid,CAPTAIN,AMBULANCE,,,,,,MINER,EMERALD,long,resources/sound/trials/audio_stim_human6.mp3,60fd26b47fa13cbcd98ad292,19,Female,Right handed,2021-07-26_21h04.57.104,MA Experiment 2,2021.1.2,Win32,59.95563283,2,26,94,30,1,,,,,
1.8271,response_2,,CHIPMUNK,LEMONADE,,,,,,NAVY,RECTANGLE,short,resources/sound/catchTrials/audio_control_comp_project06.mp3,60fd26b47fa13cbcd98ad292,19,Female,Right handed,2021-07-26_21h04.57.104,MA Experiment 2,2021.1.2,Win32,59.95563283,,,,,,0,21,21,6,1
1.8934,response_2,shortFoil,MURAL,JANITOR,,,,,,SACRED,GALAXY,short,resources/sound/trials/audio_stim_comp1.mp3,60fd26b47fa13cbcd98ad292,19,Female,Right handed,2021-07-26_21h04.57.104,MA Experiment 2,2021.1.2,Win32,59.95563283,2,27,95,7,1,,,,,
2.1604,response_1,longValid,DUEL,CITIZEN,,,,,,PAINTER,VEHICLE,short,resources/sound/trials/audio_stim_human47.mp3,60fd26b47fa13cbcd98ad292,19,Female,Right handed,2021-07-26_21h04.57.104,MA Experiment 2,2021.1.2,Win32,59.95563283,2,28,96,11,1,,,,,
1.827199999,response_2,longFoil,OLIVE,RETAILER,,,,,,HARDWARE,OVERCOAT,short,resources/sound/trials/audio_stim_human35.mp3,60fd26b47fa13cbcd98ad292,19,Female,Right handed,2021-07-26_21h04.57.104,MA Experiment 2,2021.1.2,Win32,59.95563283,2,29,97,8,1,,,,,
1.660299999,response_1,longFoil,FERTILE,CHOCOLATE,,,,,,ATHLETE,IVORY,long,resources/sound/trials/audio_stim_comp57.mp3,60fd26b47fa13cbcd98ad292,19,Female,Right handed,2021-07-26_21h04.57.104,MA Experiment 2,2021.1.2,Win32,59.95563283,2,30,98,22,1,,,,,
1.4431,response_2,,RABBI,FURNITURE,,,,,,HOBBY,COLONY,long,resources/sound/catchTrials/audio_control_human_project04.mp3,60fd26b47fa13cbcd98ad292,19,Female,Right handed,2021-07-26_21h04.57.104,MA Experiment 2,2021.1.2,Win32,59.95563283,,,,,,0,4,4,27,1
1.694299999,response_2,longValid,SCOOTER,TEMPERATURE,,,,,,PARTY,SANCTUARY,short,resources/sound/trials/audio_stim_human50.mp3,60fd26b47fa13cbcd98ad292,19,Female,Right handed,2021-07-26_21h04.57.104,MA Experiment 2,2021.1.2,Win32,59.95563283,2,31,99,14,1,,,,,
1.5801,response_2,longValid,HAMMER,BEVERAGE,,,,,,PARTY,SANCTUARY,long,resources/sound/trials/audio_stim_human50.mp3,60fd26b47fa13cbcd98ad292,19,Female,Right handed,2021-07-26_21h04.57.104,MA Experiment 2,2021.1.2,Win32,59.95563283,2,32,100,31,1,,,,,
1.312199999,response_2,longValid,KETTLE,INSTRUMENT,,,,,,BRAINSTORM,GREEN NEEDLE,short,resources/sound/trials/audio_stim_original.mp3,60fd26b47fa13cbcd98ad292,19,Female,Right handed,2021-07-26_21h04.57.104,MA Experiment 2,2021.1.2,Win32,59.95563283,2,33,101,16,1,,,,,
1.6439,response_1,shortFoil,JURY,DIAMOND,,,,,,DAYLIGHT,MATERIAL,short,resources/sound/trials/audio_stim_human42.mp3,60fd26b47fa13cbcd98ad292,19,Female,Right handed,2021-07-26_21h04.57.104,MA Experiment 2,2021.1.2,Win32,59.95563283,3,0,102,9,1,,,,,
1.710200001,response_2,longValid,HURDLE,MICROSCOPE,,,,,,CONCRETE,ENEMY,long,resources/sound/trials/audio_stim_human67.mp3,60fd26b47fa13cbcd98ad292,19,Female,Right handed,2021-07-26_21h04.57.104,MA Experiment 2,2021.1.2,Win32,59.95563283,3,1,103,27,1,,,,,
1.461,response_2,longFoil,HAMSTER,GORILLA,,,,,,MINER,EMERALD,long,resources/sound/trials/audio_stim_comp6.mp3,60fd26b47fa13cbcd98ad292,19,Female,Right handed,2021-07-26_21h04.57.104,MA Experiment 2,2021.1.2,Win32,59.95563283,3,2,104,18,1,,,,,
0.911200001,response_2,,SULPHUR,APPLIANCE,,,,,,CORNER,ENGINEER,long,resources/sound/catchTrials/audio_control_human_project14.mp3,60fd26b47fa13cbcd98ad292,19,Female,Right handed,2021-07-26_21h04.57.104,MA Experiment 2,2021.1.2,Win32,59.95563283,,,,,,0,12,12,26,1
1.344200001,response_1,shortFoil,ANCHOR,PHYSICIAN,,,,,,PAINTER,VEHICLE,long,resources/sound/trials/audio_stim_human47.mp3,60fd26b47fa13cbcd98ad292,19,Female,Right handed,2021-07-26_21h04.57.104,MA Experiment 2,2021.1.2,Win32,59.95563283,3,3,105,28,1,,,,,
1.427700001,response_1,shortFoil,PIANO,BUTTERFLY,,,,,,MARBLE,CUSTOMER,short,resources/sound/trials/audio_stim_comp65.mp3,60fd26b47fa13cbcd98ad292,19,Female,Right handed,2021-07-26_21h04.57.104,MA Experiment 2,2021.1.2,Win32,59.95563283,3,4,106,4,1,,,,,
2.261299999,response_1,longFoil,NAPKIN,MOLECULE,,,,,,MARBLE,CUSTOMER,long,resources/sound/trials/audio_stim_comp65.mp3,60fd26b47fa13cbcd98ad292,19,Female,Right handed,2021-07-26_21h04.57.104,MA Experiment 2,2021.1.2,Win32,59.95563283,3,5,107,21,1,,,,,
1.3774,response_1,shortFoil,NOVEL,CATHEDRAL,,,,,,DAYLIGHT,MATERIAL,long,resources/sound/trials/audio_stim_human42.mp3,60fd26b47fa13cbcd98ad292,19,Female,Right handed,2021-07-26_21h04.57.104,MA Experiment 2,2021.1.2,Win32,59.95563283,3,6,108,26,1,,,,,
0.644700001,response_2,,BERRY,DESTROYER,,,,,,CORNER,ENGINEER,short,resources/sound/catchTrials/audio_control_human_project14.mp3,60fd26b47fa13cbcd98ad292,19,Female,Right handed,2021-07-26_21h04.57.104,MA Experiment 2,2021.1.2,Win32,59.95563283,,,,,,0,31,31,10,1
1.461199999,response_2,shortValid,MOONLIGHT,TANGERINE,,,,,,HARDWARE,OVERCOAT,short,resources/sound/trials/audio_stim_human35.mp3,60fd26b47fa13cbcd98ad292,19,Female,Right handed,2021-07-26_21h04.57.104,MA Experiment 2,2021.1.2,Win32,59.95563283,3,7,109,8,1,,,,,
0.9959,response_2,longValid,VILLAGE,SAXOPHONE,,,,,,ROBBER,RATTLESNAKE,long,resources/sound/trials/audio_stim_human64.mp3,60fd26b47fa13cbcd98ad292,19,Female,Right handed,2021-07-26_21h04.57.104,MA Experiment 2,2021.1.2,Win32,59.95563283,3,8,110,32,1,,,,,
1.3976,response_2,longFoil,KENNEL,PHOTOGRAPH,,,,,,ROBBER,RATTLESNAKE,short,resources/sound/trials/audio_stim_human64.mp3,60fd26b47fa13cbcd98ad292,19,Female,Right handed,2021-07-26_21h04.57.104,MA Experiment 2,2021.1.2,Win32,59.95563283,3,9,111,15,1,,,,,
0.828,response_2,longFoil,EVENING,PROPELLER,,,,,,PARTY,SANCTUARY,short,resources/sound/trials/audio_stim_human50.mp3,60fd26b47fa13cbcd98ad292,19,Female,Right handed,2021-07-26_21h04.57.104,MA Experiment 2,2021.1.2,Win32,59.95563283,3,10,112,14,1,,,,,
1.611400002,response_2,,TORTURE,ASBESTOS,,,,,,BORDER,ALGEBRA,long,resources/sound/catchTrials/audio_control_comp_project00.mp3,60fd26b47fa13cbcd98ad292,19,Female,Right handed,2021-07-26_21h04.57.104,MA Experiment 2,2021.1.2,Win32,59.95563283,,,,,,0,2,2,16,1
1.360800001,response_2,longFoil,INCOME,CARNATION,,,,,,BRAINSTORM,GREEN NEEDLE,long,resources/sound/trials/audio_stim_original.mp3,60fd26b47fa13cbcd98ad292,19,Female,Right handed,2021-07-26_21h04.57.104,MA Experiment 2,2021.1.2,Win32,59.95563283,3,11,113,33,1,,,,,
2.3761,response_1,longValid,FAIRY,INSTITUTE,,,,,,WHISTLE,TREASURER,long,resources/sound/trials/audio_stim_comp12.mp3,60fd26b47fa13cbcd98ad292,19,Female,Right handed,2021-07-26_21h04.57.104,MA Experiment 2,2021.1.2,Win32,59.95563283,3,12,114,20,1,,,,,
1.543900002,response_2,longFoil,VALLEY,AMMONIA,,,,,,HARDWARE,OVERCOAT,long,resources/sound/trials/audio_stim_human35.mp3,60fd26b47fa13cbcd98ad292,19,Female,Right handed,2021-07-26_21h04.57.104,MA Experiment 2,2021.1.2,Win32,59.95563283,3,13,115,25,1,,,,,
1.578400002,response_2,shortFoil,WINDOW,ALPHABET,,,,,,DRIZZLE,CARDINAL,short,resources/sound/trials/audio_stim_comp69.mp3,60fd26b47fa13cbcd98ad292,19,Female,Right handed,2021-07-26_21h04.57.104,MA Experiment 2,2021.1.2,Win32,59.95563283,3,14,116,0,1,,,,,
1.476799999,response_1,,MUSCLE,GALLERY,,,,,,VIOLET,LUBRICANT,long,resources/sound/catchTrials/audio_control_comp_project07.mp3,60fd26b47fa13cbcd98ad292,19,Female,Right handed,2021-07-26_21h04.57.104,MA Experiment 2,2021.1.2,Win32,59.95563283,,,,,,0,24,24,19,1
1.561200001,response_2,shortFoil,PRINCESS,INTERVIEW,,,,,,SACRED,GALAXY,long,resources/sound/trials/audio_stim_comp1.mp3,60fd26b47fa13cbcd98ad292,19,Female,Right handed,2021-07-26_21h04.57.104,MA Experiment 2,2021.1.2,Win32,59.95563283,3,15,117,24,1,,,,,
1.161300001,response_1,shortValid,CEREAL,MOSQUITO,,,,,,ATHLETE,IVORY,long,resources/sound/trials/audio_stim_comp57.mp3,60fd26b47fa13cbcd98ad292,19,Female,Right handed,2021-07-26_21h04.57.104,MA Experiment 2,2021.1.2,Win32,59.95563283,3,16,118,22,1,,,,,
0.6121,response_1,shortFoil,TEMPLE,OPENING,,,,,,WORKER,VISITOR,long,resources/sound/trials/audio_stim_comp17.mp3,60fd26b47fa13cbcd98ad292,19,Female,Right handed,2021-07-26_21h04.57.104,MA Experiment 2,2021.1.2,Win32,59.95563283,3,17,119,23,1,,,,,
1.727700001,response_2,longValid,PERSON,HURRICANE,,,,,,RUBBER,PROPERTY,long,resources/sound/trials/audio_stim_human0.mp3,60fd26b47fa13cbcd98ad292,19,Female,Right handed,2021-07-26_21h04.57.104,MA Experiment 2,2021.1.2,Win32,59.95563283,3,18,120,29,1,,,,,
1.5751,response_2,,SINGER,CIGARETTE,,,,,,SPINACH,APRICOT,short,resources/sound/catchTrials/audio_control_comp_project18.mp3,60fd26b47fa13cbcd98ad292,19,Female,Right handed,2021-07-26_21h04.57.104,MA Experiment 2,2021.1.2,Win32,59.95563283,,,,,,0,1,1,5,1
0.928799999,response_2,longValid,MISTRESS,REFEREE,,,,,,ATHLETE,IVORY,short,resources/sound/trials/audio_stim_comp57.mp3,60fd26b47fa13cbcd98ad292,19,Female,Right handed,2021-07-26_21h04.57.104,MA Experiment 2,2021.1.2,Win32,59.95563283,3,19,121,5,1,,,,,
1.760700001,response_2,longFoil,LEADER,ENAMEL,,,,,,MINER,EMERALD,short,resources/sound/trials/audio_stim_human6.mp3,60fd26b47fa13cbcd98ad292,19,Female,Right handed,2021-07-26_21h04.57.104,MA Experiment 2,2021.1.2,Win32,59.95563283,3,20,122,13,1,,,,,
2.699,response_1,longFoil,VAPOUR,MINERAL,,,,,,SACRED,GALAXY,short,resources/sound/trials/audio_stim_comp1.mp3,60fd26b47fa13cbcd98ad292,19,Female,Right handed,2021-07-26_21h04.57.104,MA Experiment 2,2021.1.2,Win32,59.95563283,3,21,123,7,1,,,,,
2.243,response_1,shortFoil,SHOULDER,ICICLE,,,,,,WORKER,VISITOR,short,resources/sound/trials/audio_stim_comp17.mp3,60fd26b47fa13cbcd98ad292,19,Female,Right handed,2021-07-26_21h04.57.104,MA Experiment 2,2021.1.2,Win32,59.95563283,3,22,124,6,1,,,,,
1.500199999,response_2,,FOREARM,COMMITTEE,,,,,,ICY,JITTERBUG,short,resources/sound/catchTrials/audio_control_comp_project08.mp3,60fd26b47fa13cbcd98ad292,19,Female,Right handed,2021-07-26_21h04.57.104,MA Experiment 2,2021.1.2,Win32,59.95563283,,,,,,0,13,13,7,1
1.877700001,response_2,shortFoil,BISHOP,CROCODILE,,,,,,PARTY,SANCTUARY,long,resources/sound/trials/audio_stim_human50.mp3,60fd26b47fa13cbcd98ad292,19,Female,Right handed,2021-07-26_21h04.57.104,MA Experiment 2,2021.1.2,Win32,59.95563283,3,23,125,31,1,,,,,
2.044,response_2,shortValid,PICTURE,ABDOMEN,,,,,,MINER,EMERALD,long,resources/sound/trials/audio_stim_human6.mp3,60fd26b47fa13cbcd98ad292,19,Female,Right handed,2021-07-26_21h04.57.104,MA Experiment 2,2021.1.2,Win32,59.95563283,3,24,126,30,1,,,,,
1.492299999,response_1,shortFoil,BEETLE,MONUMENT,,,,,,CONCRETE,ENEMY,short,resources/sound/trials/audio_stim_human67.mp3,60fd26b47fa13cbcd98ad292,19,Female,Right handed,2021-07-26_21h04.57.104,MA Experiment 2,2021.1.2,Win32,59.95563283,3,25,127,10,1,,,,,
1.410800001,response_2,shortValid,MORNING,CAPITAL,,,,,,RECEIPT,LIMOUSINE,short,resources/sound/trials/audio_stim_comp40.mp3,60fd26b47fa13cbcd98ad292,19,Female,Right handed,2021-07-26_21h04.57.104,MA Experiment 2,2021.1.2,Win32,59.95563283,3,26,128,2,1,,,,,
1.577700001,response_2,,ACRE,CONVENTION,,,,,,NAVY,RECTANGLE,long,resources/sound/catchTrials/audio_control_comp_project06.mp3,60fd26b47fa13cbcd98ad292,19,Female,Right handed,2021-07-26_21h04.57.104,MA Experiment 2,2021.1.2,Win32,59.95563283,,,,,,0,22,22,22,1
1.860699999,response_1,shortValid,STATION,VINEGAR,,,,,,WHISTLE,TREASURER,short,resources/sound/trials/audio_stim_comp12.mp3,60fd26b47fa13cbcd98ad292,19,Female,Right handed,2021-07-26_21h04.57.104,MA Experiment 2,2021.1.2,Win32,59.95563283,3,27,129,3,1,,,,,
1.6439,response_1,shortFoil,CANTEEN,POLIO,,,,,,PAINTER,VEHICLE,short,resources/sound/trials/audio_stim_human47.mp3,60fd26b47fa13cbcd98ad292,19,Female,Right handed,2021-07-26_21h04.57.104,MA Experiment 2,2021.1.2,Win32,59.95563283,3,28,130,11,1,,,,,
1.477200001,response_2,longFoil,HARBOUR,INFECTION,,,,,,MINER,EMERALD,short,resources/sound/trials/audio_stim_comp6.mp3,60fd26b47fa13cbcd98ad292,19,Female,Right handed,2021-07-26_21h04.57.104,MA Experiment 2,2021.1.2,Win32,59.95563283,3,29,131,1,1,,,,,
2.659799999,response_2,longValid,DOORWAY,CAMERA,,,,,,RUBBER,PROPERTY,short,resources/sound/trials/audio_stim_human0.mp3,60fd26b47fa13cbcd98ad292,19,Female,Right handed,2021-07-26_21h04.57.104,MA Experiment 2,2021.1.2,Win32,59.95563283,3,30,132,12,1,,,,,
1.945099998,response_1,,TRAITOR,HOSPITAL,,,,,,JUGGLER,DANDELION,short,resources/sound/catchTrials/audio_control_human_project09.mp3,60fd26b47fa13cbcd98ad292,19,Female,Right handed,2021-07-26_21h04.57.104,MA Experiment 2,2021.1.2,Win32,59.95563283,,,,,,0,27,27,15,1
1.827799999,response_2,shortFoil,WIRE,ATTENDANT,,,,,,RECEIPT,LIMOUSINE,long,resources/sound/trials/audio_stim_comp40.mp3,60fd26b47fa13cbcd98ad292,19,Female,Right handed,2021-07-26_21h04.57.104,MA Experiment 2,2021.1.2,Win32,59.95563283,3,31,133,19,1,,,,,
1.699099998,response_2,longValid,NECKLACE,EMULSION,,,,,,DRIZZLE,CARDINAL,long,resources/sound/trials/audio_stim_comp69.mp3,60fd26b47fa13cbcd98ad292,19,Female,Right handed,2021-07-26_21h04.57.104,MA Experiment 2,2021.1.2,Win32,59.95563283,3,32,134,17,1,,,,,
0.9614,response_2,shortValid,BUTTER,FACTORY,,,,,,BRAINSTORM,GREEN NEEDLE,short,resources/sound/trials/audio_stim_original.mp3,60fd26b47fa13cbcd98ad292,19,Female,Right handed,2021-07-26_21h04.57.104,MA Experiment 2,2021.1.2,Win32,59.95563283,3,33,135,16,1,,,,,
