response.time,response,cueTarget,rand_foil_1,rand_foil_2,prac_trials.thisRepN,prac_trials.thisTrialN,prac_trials.thisN,prac_trials.thisIndex,prac_trials.ran,word_1,word_2,cue,file_path,participant,age,gender,handedness,date,expName,psychopyVersion,OS,frameRate,trials.thisRepN,trials.thisTrialN,trials.thisN,trials.thisIndex,trials.ran,catchTrials.thisRepN,catchTrials.thisTrialN,catchTrials.thisN,catchTrials.thisIndex,catchTrials.ran
2.746,response_2,longFoil,BEETLE,INSTRUCTOR,0,0,0,9,1,GRUMPY,LABYRINTH,long,resources/sound/prac_trials/practice_cue_human9.mp3,60fd866a4ae37ceb4179e113,18,Female,Right handed,2021-07-26_20h58.45.503,MA Experiment 2,2021.1.2,MacIntel,55.55555556,,,,,,,,,,
2.028,response_2,shortFoil,HARBOUR,LEMONADE,0,1,1,2,1,RECENT,TOBACCO,short,resources/sound/prac_trials/practice_cue2.mp3,60fd866a4ae37ceb4179e113,18,Female,Right handed,2021-07-26_20h58.45.503,MA Experiment 2,2021.1.2,MacIntel,55.55555556,,,,,,,,,,
2.829,response_1,longFoil,SOFA,FAMILY,0,2,2,11,1,KETCHUP,GONDOLA,long,resources/sound/prac_trials/practice_cue_human11.mp3,60fd866a4ae37ceb4179e113,18,Female,Right handed,2021-07-26_20h58.45.503,MA Experiment 2,2021.1.2,MacIntel,55.55555556,,,,,,,,,,
1.128,response_2,longFoil,WINDOW,CAPITAL,0,3,3,6,1,VACANT,SALVATION,long,resources/sound/prac_trials/practice_cue6.mp3,60fd866a4ae37ceb4179e113,18,Female,Right handed,2021-07-26_20h58.45.503,MA Experiment 2,2021.1.2,MacIntel,55.55555556,,,,,,,,,,
1.829,response_2,shortFoil,LIQUID,ADMIRAL,0,4,4,1,1,CABLE,REPUBLIC,short,resources/sound/prac_trials/practice_cue_human1.mp3,60fd866a4ae37ceb4179e113,18,Female,Right handed,2021-07-26_20h58.45.503,MA Experiment 2,2021.1.2,MacIntel,55.55555556,,,,,,,,,,
0.996,response_1,shortValid,SINGER,INJURY,0,5,5,0,1,AARDVARK,FALLACY,short,resources/sound/prac_trials/practice_cue0.mp3,60fd866a4ae37ceb4179e113,18,Female,Right handed,2021-07-26_20h58.45.503,MA Experiment 2,2021.1.2,MacIntel,55.55555556,,,,,,,,,,
1.446,response_2,longValid,MUSCLE,GORILLA,0,6,6,3,1,EAGER,QUALIFY,short,resources/sound/prac_trials/practice_cue_human3.mp3,60fd866a4ae37ceb4179e113,18,Female,Right handed,2021-07-26_20h58.45.503,MA Experiment 2,2021.1.2,MacIntel,55.55555556,,,,,,,,,,
1.28,response_2,longValid,DWELLER,UMBRELLA,0,7,7,8,1,DAGGER,EMPHASIS,long,resources/sound/prac_trials/practice_cue8.mp3,60fd866a4ae37ceb4179e113,18,Female,Right handed,2021-07-26_20h58.45.503,MA Experiment 2,2021.1.2,MacIntel,55.55555556,,,,,,,,,,
1.596,response_2,shortFoil,BUTTER,INTERVIEW,0,8,8,7,1,BUCKLE,WALLABY,long,resources/sound/prac_trials/practice_cue_human7.mp3,60fd866a4ae37ceb4179e113,18,Female,Right handed,2021-07-26_20h58.45.503,MA Experiment 2,2021.1.2,MacIntel,55.55555556,,,,,,,,,,
1.247,response_2,longFoil,NATIVE,BUTTERFLY,0,9,9,4,1,FIZZY,ELECTRIC,short,resources/sound/prac_trials/practice_cue4.mp3,60fd866a4ae37ceb4179e113,18,Female,Right handed,2021-07-26_20h58.45.503,MA Experiment 2,2021.1.2,MacIntel,55.55555556,,,,,,,,,,
1.228,response_1,shortValid,NURSERY,GRASSHOPPER,0,10,10,5,1,NONSENSE,OASIS,short,resources/sound/prac_trials/practice_cue_human5.mp3,60fd866a4ae37ceb4179e113,18,Female,Right handed,2021-07-26_20h58.45.503,MA Experiment 2,2021.1.2,MacIntel,55.55555556,,,,,,,,,,
1.493,response_1,shortValid,MISTRESS,COMMITTEE,0,11,11,10,1,SAFFRON,JAVELIN,long,resources/sound/prac_trials/practice_cue10.mp3,60fd866a4ae37ceb4179e113,18,Female,Right handed,2021-07-26_20h58.45.503,MA Experiment 2,2021.1.2,MacIntel,55.55555556,,,,,,,,,,
2.062,response_2,shortValid,POLO,SAXOPHONE,,,,,,RECEIPT,LIMOUSINE,long,resources/sound/trials/audio_stim_comp40.mp3,60fd866a4ae37ceb4179e113,18,Female,Right handed,2021-07-26_20h58.45.503,MA Experiment 2,2021.1.2,MacIntel,55.55555556,0,0,0,19,1,,,,,
1.364,response_1,shortValid,LOBSTER,OPENING,,,,,,RECEIPT,LIMOUSINE,short,resources/sound/trials/audio_stim_comp40.mp3,60fd866a4ae37ceb4179e113,18,Female,Right handed,2021-07-26_20h58.45.503,MA Experiment 2,2021.1.2,MacIntel,55.55555556,0,1,1,2,1,,,,,
2.146,response_1,shortValid,FOREARM,FURNITURE,,,,,,CONCRETE,ENEMY,short,resources/sound/trials/audio_stim_human67.mp3,60fd866a4ae37ceb4179e113,18,Female,Right handed,2021-07-26_20h58.45.503,MA Experiment 2,2021.1.2,MacIntel,55.55555556,0,2,2,10,1,,,,,
1.68,response_2,,ANCHOR,MOSQUITO,,,,,,IRIS,VIOLIN,long,resources/sound/catchTrials/audio_control_comp_project12.mp3,60fd866a4ae37ceb4179e113,18,Female,Right handed,2021-07-26_20h58.45.503,MA Experiment 2,2021.1.2,MacIntel,55.55555556,,,,,,0,12,12,20,1
1.297,response_2,longValid,BURNER,GOVERNMENT,,,,,,HARDWARE,OVERCOAT,long,resources/sound/trials/audio_stim_human35.mp3,60fd866a4ae37ceb4179e113,18,Female,Right handed,2021-07-26_20h58.45.503,MA Experiment 2,2021.1.2,MacIntel,55.55555556,0,3,3,25,1,,,,,
1.313,response_2,longFoil,KERNEL,HANDKERCHIEF,,,,,,RUBBER,PROPERTY,long,resources/sound/trials/audio_stim_human0.mp3,60fd866a4ae37ceb4179e113,18,Female,Right handed,2021-07-26_20h58.45.503,MA Experiment 2,2021.1.2,MacIntel,55.55555556,0,4,4,29,1,,,,,
1.496,response_2,longFoil,NECKLACE,FACTORY,,,,,,HARDWARE,OVERCOAT,short,resources/sound/trials/audio_stim_human35.mp3,60fd866a4ae37ceb4179e113,18,Female,Right handed,2021-07-26_20h58.45.503,MA Experiment 2,2021.1.2,MacIntel,55.55555556,0,5,5,8,1,,,,,
0.763,response_1,shortValid,WALRUS,HEROIN,,,,,,ATHLETE,IVORY,short,resources/sound/trials/audio_stim_comp57.mp3,60fd866a4ae37ceb4179e113,18,Female,Right handed,2021-07-26_20h58.45.503,MA Experiment 2,2021.1.2,MacIntel,55.55555556,0,6,6,5,1,,,,,
1.062,response_2,,MURDER,MICROSCOPE,,,,,,CORNER,ENGINEER,long,resources/sound/catchTrials/audio_control_comp_project14.mp3,60fd866a4ae37ceb4179e113,18,Female,Right handed,2021-07-26_20h58.45.503,MA Experiment 2,2021.1.2,MacIntel,55.55555556,,,,,,0,11,11,17,1
1.545,response_2,longFoil,TUMBLE,CARNATION,,,,,,WORKER,VISITOR,short,resources/sound/trials/audio_stim_comp17.mp3,60fd866a4ae37ceb4179e113,18,Female,Right handed,2021-07-26_20h58.45.503,MA Experiment 2,2021.1.2,MacIntel,55.55555556,0,7,7,6,1,,,,,
1.312,response_2,longFoil,TORTURE,MESSENGER,,,,,,PARTY,SANCTUARY,short,resources/sound/trials/audio_stim_human50.mp3,60fd866a4ae37ceb4179e113,18,Female,Right handed,2021-07-26_20h58.45.503,MA Experiment 2,2021.1.2,MacIntel,55.55555556,0,8,8,14,1,,,,,
1.364,response_2,longValid,PERSON,MONUMENT,,,,,,MINER,EMERALD,short,resources/sound/trials/audio_stim_human6.mp3,60fd866a4ae37ceb4179e113,18,Female,Right handed,2021-07-26_20h58.45.503,MA Experiment 2,2021.1.2,MacIntel,55.55555556,0,9,9,13,1,,,,,
1.51,response_2,longValid,PODIUM,LECTURER,,,,,,BRAINSTORM,GREEN NEEDLE,long,resources/sound/trials/audio_stim_original.mp3,60fd866a4ae37ceb4179e113,18,Female,Right handed,2021-07-26_20h58.45.503,MA Experiment 2,2021.1.2,MacIntel,55.55555556,0,10,10,33,1,,,,,
1.38,response_2,,FATHER,ENVELOPE,,,,,,IRIS,VIOLIN,short,resources/sound/catchTrials/audio_control_comp_project12.mp3,60fd866a4ae37ceb4179e113,18,Female,Right handed,2021-07-26_20h58.45.503,MA Experiment 2,2021.1.2,MacIntel,55.55555556,,,,,,0,22,22,4,1
1.412,response_1,longValid,MEDICINE,HOSPITAL,,,,,,SACRED,GALAXY,short,resources/sound/trials/audio_stim_comp1.mp3,60fd866a4ae37ceb4179e113,18,Female,Right handed,2021-07-26_20h58.45.503,MA Experiment 2,2021.1.2,MacIntel,55.55555556,0,11,11,7,1,,,,,
1.379,response_2,longValid,TWEEZER,ORNAMENT,,,,,,BRAINSTORM,GREEN NEEDLE,short,resources/sound/trials/audio_stim_original.mp3,60fd866a4ae37ceb4179e113,18,Female,Right handed,2021-07-26_20h58.45.503,MA Experiment 2,2021.1.2,MacIntel,55.55555556,0,12,12,16,1,,,,,
1.328,response_2,longValid,OFFICE,GYMNASTICS,,,,,,MINER,EMERALD,short,resources/sound/trials/audio_stim_comp6.mp3,60fd866a4ae37ceb4179e113,18,Female,Right handed,2021-07-26_20h58.45.503,MA Experiment 2,2021.1.2,MacIntel,55.55555556,0,13,13,1,1,,,,,
1.396,response_2,longFoil,MURAL,AMMONIA,,,,,,ROBBER,RATTLESNAKE,long,resources/sound/trials/audio_stim_human64.mp3,60fd866a4ae37ceb4179e113,18,Female,Right handed,2021-07-26_20h58.45.503,MA Experiment 2,2021.1.2,MacIntel,55.55555556,0,14,14,32,1,,,,,
1.147,response_2,,TEMPLE,MOLECULE,,,,,,NAVY,RECTANGLE,short,resources/sound/catchTrials/audio_control_comp_project06.mp3,60fd866a4ae37ceb4179e113,18,Female,Right handed,2021-07-26_20h58.45.503,MA Experiment 2,2021.1.2,MacIntel,55.55555556,,,,,,0,23,23,6,1
1.447,response_1,longValid,MEASLES,CORRIDOR,,,,,,SACRED,GALAXY,long,resources/sound/trials/audio_stim_comp1.mp3,60fd866a4ae37ceb4179e113,18,Female,Right handed,2021-07-26_20h58.45.503,MA Experiment 2,2021.1.2,MacIntel,55.55555556,0,15,15,24,1,,,,,
1.196,response_2,shortValid,DECOY,CINNAMON,,,,,,PARTY,SANCTUARY,long,resources/sound/trials/audio_stim_human50.mp3,60fd866a4ae37ceb4179e113,18,Female,Right handed,2021-07-26_20h58.45.503,MA Experiment 2,2021.1.2,MacIntel,55.55555556,0,16,16,31,1,,,,,
1.131,response_1,shortValid,FAIRY,RETAILER,,,,,,WHISTLE,TREASURER,short,resources/sound/trials/audio_stim_comp12.mp3,60fd866a4ae37ceb4179e113,18,Female,Right handed,2021-07-26_20h58.45.503,MA Experiment 2,2021.1.2,MacIntel,55.55555556,0,17,17,3,1,,,,,
0.996,response_1,longFoil,MORNING,GINGERBREAD,,,,,,ATHLETE,IVORY,long,resources/sound/trials/audio_stim_comp57.mp3,60fd866a4ae37ceb4179e113,18,Female,Right handed,2021-07-26_20h58.45.503,MA Experiment 2,2021.1.2,MacIntel,55.55555556,0,18,18,22,1,,,,,
1.211,response_2,,HAMSTER,INSTITUTE,,,,,,IRIS,VIOLIN,short,resources/sound/catchTrials/audio_control_human_project12.mp3,60fd866a4ae37ceb4179e113,18,Female,Right handed,2021-07-26_20h58.45.503,MA Experiment 2,2021.1.2,MacIntel,55.55555556,,,,,,0,27,27,8,1
0.896,response_2,longFoil,NAPKIN,POLICEMAN,,,,,,MINER,EMERALD,long,resources/sound/trials/audio_stim_human6.mp3,60fd866a4ae37ceb4179e113,18,Female,Right handed,2021-07-26_20h58.45.503,MA Experiment 2,2021.1.2,MacIntel,55.55555556,0,19,19,30,1,,,,,
1.114,response_2,longFoil,ACRE,CANDLELIGHT,,,,,,MINER,EMERALD,long,resources/sound/trials/audio_stim_comp6.mp3,60fd866a4ae37ceb4179e113,18,Female,Right handed,2021-07-26_20h58.45.503,MA Experiment 2,2021.1.2,MacIntel,55.55555556,0,20,20,18,1,,,,,
2.512,response_1,shortValid,WIRE,STRAWBERRY,,,,,,CONCRETE,ENEMY,long,resources/sound/trials/audio_stim_human67.mp3,60fd866a4ae37ceb4179e113,18,Female,Right handed,2021-07-26_20h58.45.503,MA Experiment 2,2021.1.2,MacIntel,55.55555556,0,21,21,27,1,,,,,
1.476,response_2,shortValid,EVENING,VINEGAR,,,,,,MARBLE,CUSTOMER,short,resources/sound/trials/audio_stim_comp65.mp3,60fd866a4ae37ceb4179e113,18,Female,Right handed,2021-07-26_20h58.45.503,MA Experiment 2,2021.1.2,MacIntel,55.55555556,0,22,22,4,1,,,,,
1.244,response_1,,CANTEEN,PROFESSOR,,,,,,VIOLET,LUBRICANT,short,resources/sound/catchTrials/audio_control_human_project07.mp3,60fd866a4ae37ceb4179e113,18,Female,Right handed,2021-07-26_20h58.45.503,MA Experiment 2,2021.1.2,MacIntel,55.55555556,,,,,,0,3,3,12,1
2.047,response_2,longFoil,LIGHTNING,PROJECTOR,,,,,,ROBBER,RATTLESNAKE,short,resources/sound/trials/audio_stim_human64.mp3,60fd866a4ae37ceb4179e113,18,Female,Right handed,2021-07-26_20h58.45.503,MA Experiment 2,2021.1.2,MacIntel,55.55555556,0,23,23,15,1,,,,,
1.763,response_1,longFoil,CHIPMUNK,FISHERMAN,,,,,,DRIZZLE,CARDINAL,long,resources/sound/trials/audio_stim_comp69.mp3,60fd866a4ae37ceb4179e113,18,Female,Right handed,2021-07-26_20h58.45.503,MA Experiment 2,2021.1.2,MacIntel,55.55555556,0,24,24,17,1,,,,,
1.195,response_1,shortValid,SHOULDER,OXYGEN,,,,,,WHISTLE,TREASURER,long,resources/sound/trials/audio_stim_comp12.mp3,60fd866a4ae37ceb4179e113,18,Female,Right handed,2021-07-26_20h58.45.503,MA Experiment 2,2021.1.2,MacIntel,55.55555556,0,25,25,20,1,,,,,
1.246,response_1,longValid,SADDLE,ATTENDANT,,,,,,DAYLIGHT,MATERIAL,long,resources/sound/trials/audio_stim_human42.mp3,60fd866a4ae37ceb4179e113,18,Female,Right handed,2021-07-26_20h58.45.503,MA Experiment 2,2021.1.2,MacIntel,55.55555556,0,26,26,26,1,,,,,
1.395,response_2,,VALLEY,REFEREE,,,,,,JOURNAL,ROBBERY,long,resources/sound/catchTrials/audio_control_human_project02.mp3,60fd866a4ae37ceb4179e113,18,Female,Right handed,2021-07-26_20h58.45.503,MA Experiment 2,2021.1.2,MacIntel,55.55555556,,,,,,0,7,7,29,1
1.363,response_1,longValid,PIPING,CIGARETTE,,,,,,DRIZZLE,CARDINAL,short,resources/sound/trials/audio_stim_comp69.mp3,60fd866a4ae37ceb4179e113,18,Female,Right handed,2021-07-26_20h58.45.503,MA Experiment 2,2021.1.2,MacIntel,55.55555556,0,27,27,0,1,,,,,
2.014,response_2,longValid,CEREAL,MINERAL,,,,,,PAINTER,VEHICLE,short,resources/sound/trials/audio_stim_human47.mp3,60fd866a4ae37ceb4179e113,18,Female,Right handed,2021-07-26_20h58.45.503,MA Experiment 2,2021.1.2,MacIntel,55.55555556,0,28,28,11,1,,,,,
1.112,response_2,shortValid,BISHOP,CLARINET,,,,,,RUBBER,PROPERTY,short,resources/sound/trials/audio_stim_human0.mp3,60fd866a4ae37ceb4179e113,18,Female,Right handed,2021-07-26_20h58.45.503,MA Experiment 2,2021.1.2,MacIntel,55.55555556,0,29,29,12,1,,,,,
0.98,response_2,longFoil,FERTILE,INFECTION,,,,,,WORKER,VISITOR,long,resources/sound/trials/audio_stim_comp17.mp3,60fd866a4ae37ceb4179e113,18,Female,Right handed,2021-07-26_20h58.45.503,MA Experiment 2,2021.1.2,MacIntel,55.55555556,0,30,30,23,1,,,,,
1.128,response_1,,DIAL,HONEYMOON,,,,,,JUGGLER,DANDELION,long,resources/sound/catchTrials/audio_control_human_project09.mp3,60fd866a4ae37ceb4179e113,18,Female,Right handed,2021-07-26_20h58.45.503,MA Experiment 2,2021.1.2,MacIntel,55.55555556,,,,,,0,6,6,31,1
0.995,response_1,longValid,EARTHWORM,PHYSICIAN,,,,,,PAINTER,VEHICLE,long,resources/sound/trials/audio_stim_human47.mp3,60fd866a4ae37ceb4179e113,18,Female,Right handed,2021-07-26_20h58.45.503,MA Experiment 2,2021.1.2,MacIntel,55.55555556,0,31,31,28,1,,,,,
1.212,response_1,longValid,DOORWAY,BEVERAGE,,,,,,DAYLIGHT,MATERIAL,short,resources/sound/trials/audio_stim_human42.mp3,60fd866a4ae37ceb4179e113,18,Female,Right handed,2021-07-26_20h58.45.503,MA Experiment 2,2021.1.2,MacIntel,55.55555556,0,32,32,9,1,,,,,
1.445,response_1,longFoil,KENNEL,ASBESTOS,,,,,,MARBLE,CUSTOMER,long,resources/sound/trials/audio_stim_comp65.mp3,60fd866a4ae37ceb4179e113,18,Female,Right handed,2021-07-26_20h58.45.503,MA Experiment 2,2021.1.2,MacIntel,55.55555556,0,33,33,21,1,,,,,
1.461,response_2,longValid,BERRY,MINISTER,,,,,,RUBBER,PROPERTY,long,resources/sound/trials/audio_stim_human0.mp3,60fd866a4ae37ceb4179e113,18,Female,Right handed,2021-07-26_20h58.45.503,MA Experiment 2,2021.1.2,MacIntel,55.55555556,1,0,34,29,1,,,,,
1.647,response_1,longValid,PATIENT,TANGERINE,,,,,,CONCRETE,ENEMY,long,resources/sound/trials/audio_stim_human67.mp3,60fd866a4ae37ceb4179e113,18,Female,Right handed,2021-07-26_20h58.45.503,MA Experiment 2,2021.1.2,MacIntel,55.55555556,1,1,35,27,1,,,,,
1.446,response_1,shortFoil,SHEEPSKIN,CONVENTION,,,,,,ATHLETE,IVORY,long,resources/sound/trials/audio_stim_comp57.mp3,60fd866a4ae37ceb4179e113,18,Female,Right handed,2021-07-26_20h58.45.503,MA Experiment 2,2021.1.2,MacIntel,55.55555556,1,2,36,22,1,,,,,
1.213,response_2,,GRADUATE,ANTIQUE,,,,,,CORNER,ENGINEER,long,resources/sound/catchTrials/audio_control_human_project14.mp3,60fd866a4ae37ceb4179e113,18,Female,Right handed,2021-07-26_20h58.45.503,MA Experiment 2,2021.1.2,MacIntel,55.55555556,,,,,,0,9,9,26,1
2.281,response_2,longFoil,TRAITOR,SETTLEMENT,,,,,,PAINTER,VEHICLE,short,resources/sound/trials/audio_stim_human47.mp3,60fd866a4ae37ceb4179e113,18,Female,Right handed,2021-07-26_20h58.45.503,MA Experiment 2,2021.1.2,MacIntel,55.55555556,1,3,37,11,1,,,,,
1.679,response_1,longValid,VILLAGE,PHOTOGRAPH,,,,,,DRIZZLE,CARDINAL,long,resources/sound/trials/audio_stim_comp69.mp3,60fd866a4ae37ceb4179e113,18,Female,Right handed,2021-07-26_20h58.45.503,MA Experiment 2,2021.1.2,MacIntel,55.55555556,1,4,38,17,1,,,,,
1.045,response_1,shortFoil,OLIVE,TEMPERATURE,,,,,,DRIZZLE,CARDINAL,short,resources/sound/trials/audio_stim_comp69.mp3,60fd866a4ae37ceb4179e113,18,Female,Right handed,2021-07-26_20h58.45.503,MA Experiment 2,2021.1.2,MacIntel,55.55555556,1,5,39,0,1,,,,,
1.43,response_2,longValid,SCOOTER,ALCOHOL,,,,,,WORKER,VISITOR,short,resources/sound/trials/audio_stim_comp17.mp3,60fd866a4ae37ceb4179e113,18,Female,Right handed,2021-07-26_20h58.45.503,MA Experiment 2,2021.1.2,MacIntel,55.55555556,1,6,40,6,1,,,,,
1.645,response_2,,WAFER,ABDOMEN,,,,,,HOBBY,COLONY,long,resources/sound/catchTrials/audio_control_human_project04.mp3,60fd866a4ae37ceb4179e113,18,Female,Right handed,2021-07-26_20h58.45.503,MA Experiment 2,2021.1.2,MacIntel,55.55555556,,,,,,0,24,24,27,1
3.146,response_2,longFoil,PRINCESS,CROCODILE,,,,,,CONCRETE,ENEMY,short,resources/sound/trials/audio_stim_human67.mp3,60fd866a4ae37ceb4179e113,18,Female,Right handed,2021-07-26_20h58.45.503,MA Experiment 2,2021.1.2,MacIntel,55.55555556,1,7,41,10,1,,,,,
1.177,response_1,shortFoil,INVOICE,DISSECTION,,,,,,MARBLE,CUSTOMER,long,resources/sound/trials/audio_stim_comp65.mp3,60fd866a4ae37ceb4179e113,18,Female,Right handed,2021-07-26_20h58.45.503,MA Experiment 2,2021.1.2,MacIntel,55.55555556,1,8,42,21,1,,,,,
1.497,response_1,longFoil,KETTLE,ATHLETICS,,,,,,WHISTLE,TREASURER,short,resources/sound/trials/audio_stim_comp12.mp3,60fd866a4ae37ceb4179e113,18,Female,Right handed,2021-07-26_20h58.45.503,MA Experiment 2,2021.1.2,MacIntel,55.55555556,1,9,43,3,1,,,,,
1.345,response_2,longValid,RABBI,ICICLE,,,,,,PARTY,SANCTUARY,short,resources/sound/trials/audio_stim_human50.mp3,60fd866a4ae37ceb4179e113,18,Female,Right handed,2021-07-26_20h58.45.503,MA Experiment 2,2021.1.2,MacIntel,55.55555556,1,10,44,14,1,,,,,
1.079,response_2,,UNCLE,SPECIALIST,,,,,,BORDER,ALGEBRA,short,resources/sound/catchTrials/audio_control_comp_project00.mp3,60fd866a4ae37ceb4179e113,18,Female,Right handed,2021-07-26_20h58.45.503,MA Experiment 2,2021.1.2,MacIntel,55.55555556,,,,,,0,0,0,0,1
1.279,response_2,shortFoil,VESSEL,MERCURY,,,,,,HARDWARE,OVERCOAT,short,resources/sound/trials/audio_stim_human35.mp3,60fd866a4ae37ceb4179e113,18,Female,Right handed,2021-07-26_20h58.45.503,MA Experiment 2,2021.1.2,MacIntel,55.55555556,1,11,45,8,1,,,,,
1.113,response_1,shortFoil,DUEL,MECHANIC,,,,,,ATHLETE,IVORY,short,resources/sound/trials/audio_stim_comp57.mp3,60fd866a4ae37ceb4179e113,18,Female,Right handed,2021-07-26_20h58.45.503,MA Experiment 2,2021.1.2,MacIntel,55.55555556,1,12,46,5,1,,,,,
1.23,response_1,longFoil,STATION,AVENUE,,,,,,WHISTLE,TREASURER,long,resources/sound/trials/audio_stim_comp12.mp3,60fd866a4ae37ceb4179e113,18,Female,Right handed,2021-07-26_20h58.45.503,MA Experiment 2,2021.1.2,MacIntel,55.55555556,1,13,47,20,1,,,,,
0.996,response_1,shortFoil,HAMMER,HURRICANE,,,,,,SACRED,GALAXY,long,resources/sound/trials/audio_stim_comp1.mp3,60fd866a4ae37ceb4179e113,18,Female,Right handed,2021-07-26_20h58.45.503,MA Experiment 2,2021.1.2,MacIntel,55.55555556,1,14,48,24,1,,,,,
1.045,response_2,,STOCKING,CITIZEN,,,,,,HOBBY,COLONY,short,resources/sound/catchTrials/audio_control_comp_project04.mp3,60fd866a4ae37ceb4179e113,18,Female,Right handed,2021-07-26_20h58.45.503,MA Experiment 2,2021.1.2,MacIntel,55.55555556,,,,,,0,25,25,2,1
1.314,response_2,longValid,CABIN,INDUSTRY,,,,,,RECEIPT,LIMOUSINE,short,resources/sound/trials/audio_stim_comp40.mp3,60fd866a4ae37ceb4179e113,18,Female,Right handed,2021-07-26_20h58.45.503,MA Experiment 2,2021.1.2,MacIntel,55.55555556,1,15,49,2,1,,,,,
1.312,response_1,shortValid,JURY,APPLIANCE,,,,,,BRAINSTORM,GREEN NEEDLE,long,resources/sound/trials/audio_stim_original.mp3,60fd866a4ae37ceb4179e113,18,Female,Right handed,2021-07-26_20h58.45.503,MA Experiment 2,2021.1.2,MacIntel,55.55555556,1,16,50,33,1,,,,,
1.545,response_2,shortFoil,CAPTAIN,AMBULANCE,,,,,,HARDWARE,OVERCOAT,long,resources/sound/trials/audio_stim_human35.mp3,60fd866a4ae37ceb4179e113,18,Female,Right handed,2021-07-26_20h58.45.503,MA Experiment 2,2021.1.2,MacIntel,55.55555556,1,17,51,25,1,,,,,
1.177,response_2,longValid,DANCER,ALPHABET,,,,,,RECEIPT,LIMOUSINE,long,resources/sound/trials/audio_stim_comp40.mp3,60fd866a4ae37ceb4179e113,18,Female,Right handed,2021-07-26_20h58.45.503,MA Experiment 2,2021.1.2,MacIntel,55.55555556,1,18,52,19,1,,,,,
1.329,response_1,,WRITING,ENAMEL,,,,,,VIOLET,LUBRICANT,short,resources/sound/catchTrials/audio_control_comp_project07.mp3,60fd866a4ae37ceb4179e113,18,Female,Right handed,2021-07-26_20h58.45.503,MA Experiment 2,2021.1.2,MacIntel,55.55555556,,,,,,0,1,1,3,1
1.279,response_2,shortValid,GIRDLE,PROPELLER,,,,,,MINER,EMERALD,long,resources/sound/trials/audio_stim_comp6.mp3,60fd866a4ae37ceb4179e113,18,Female,Right handed,2021-07-26_20h58.45.503,MA Experiment 2,2021.1.2,MacIntel,55.55555556,1,19,53,18,1,,,,,
1.194,response_1,shortFoil,NEIGHBOUR,POTATO,,,,,,DAYLIGHT,MATERIAL,short,resources/sound/trials/audio_stim_human42.mp3,60fd866a4ae37ceb4179e113,18,Female,Right handed,2021-07-26_20h58.45.503,MA Experiment 2,2021.1.2,MacIntel,55.55555556,1,20,54,9,1,,,,,
1.23,response_1,longFoil,VAPOUR,JANITOR,,,,,,MARBLE,CUSTOMER,short,resources/sound/trials/audio_stim_comp65.mp3,60fd866a4ae37ceb4179e113,18,Female,Right handed,2021-07-26_20h58.45.503,MA Experiment 2,2021.1.2,MacIntel,55.55555556,1,21,55,4,1,,,,,
1.345,response_2,shortFoil,SULPHUR,DESTROYER,,,,,,WORKER,VISITOR,long,resources/sound/trials/audio_stim_comp17.mp3,60fd866a4ae37ceb4179e113,18,Female,Right handed,2021-07-26_20h58.45.503,MA Experiment 2,2021.1.2,MacIntel,55.55555556,1,22,56,23,1,,,,,
1.179,response_2,,SEGMENT,NEIGHBOURHOOD,,,,,,JOURNAL,ROBBERY,short,resources/sound/catchTrials/audio_control_human_project02.mp3,60fd866a4ae37ceb4179e113,18,Female,Right handed,2021-07-26_20h58.45.503,MA Experiment 2,2021.1.2,MacIntel,55.55555556,,,,,,0,13,13,13,1
1.129,response_1,longFoil,PICTURE,FIREWOOD,,,,,,DAYLIGHT,MATERIAL,long,resources/sound/trials/audio_stim_human42.mp3,60fd866a4ae37ceb4179e113,18,Female,Right handed,2021-07-26_20h58.45.503,MA Experiment 2,2021.1.2,MacIntel,55.55555556,1,23,57,26,1,,,,,
1.013,response_2,shortValid,MOONLIGHT,CATHEDRAL,,,,,,ROBBER,RATTLESNAKE,short,resources/sound/trials/audio_stim_human64.mp3,60fd866a4ae37ceb4179e113,18,Female,Right handed,2021-07-26_20h58.45.503,MA Experiment 2,2021.1.2,MacIntel,55.55555556,1,24,58,15,1,,,,,
1.312,response_2,shortFoil,CURFEW,CABINET,,,,,,RUBBER,PROPERTY,short,resources/sound/trials/audio_stim_human0.mp3,60fd866a4ae37ceb4179e113,18,Female,Right handed,2021-07-26_20h58.45.503,MA Experiment 2,2021.1.2,MacIntel,55.55555556,1,25,59,12,1,,,,,
1.01,response_2,shortFoil,CIGAR,HEADQUARTERS,,,,,,ROBBER,RATTLESNAKE,long,resources/sound/trials/audio_stim_human64.mp3,60fd866a4ae37ceb4179e113,18,Female,Right handed,2021-07-26_20h58.45.503,MA Experiment 2,2021.1.2,MacIntel,55.55555556,1,26,60,32,1,,,,,
1.661,response_1,,HURDLE,GALLERY,,,,,,VIOLET,LUBRICANT,long,resources/sound/catchTrials/audio_control_human_project07.mp3,60fd866a4ae37ceb4179e113,18,Female,Right handed,2021-07-26_20h58.45.503,MA Experiment 2,2021.1.2,MacIntel,55.55555556,,,,,,0,19,19,28,1
1.412,response_2,longFoil,SODA,POLIO,,,,,,SACRED,GALAXY,short,resources/sound/trials/audio_stim_comp1.mp3,60fd866a4ae37ceb4179e113,18,Female,Right handed,2021-07-26_20h58.45.503,MA Experiment 2,2021.1.2,MacIntel,55.55555556,1,27,61,7,1,,,,,
1.464,response_2,shortFoil,DIVING,EMULSION,,,,,,MINER,EMERALD,short,resources/sound/trials/audio_stim_human6.mp3,60fd866a4ae37ceb4179e113,18,Female,Right handed,2021-07-26_20h58.45.503,MA Experiment 2,2021.1.2,MacIntel,55.55555556,1,28,62,13,1,,,,,
1.232,response_2,shortFoil,INCOME,INSTRUMENT,,,,,,MINER,EMERALD,long,resources/sound/trials/audio_stim_human6.mp3,60fd866a4ae37ceb4179e113,18,Female,Right handed,2021-07-26_20h58.45.503,MA Experiment 2,2021.1.2,MacIntel,55.55555556,1,29,63,30,1,,,,,
1.477,response_1,shortValid,RUSTY,CHOCOLATE,,,,,,PAINTER,VEHICLE,long,resources/sound/trials/audio_stim_human47.mp3,60fd866a4ae37ceb4179e113,18,Female,Right handed,2021-07-26_20h58.45.503,MA Experiment 2,2021.1.2,MacIntel,55.55555556,1,30,64,28,1,,,,,
1.311,response_2,,PIANO,MEDICINE,,,,,,HOBBY,COLONY,short,resources/sound/catchTrials/audio_control_human_project04.mp3,60fd866a4ae37ceb4179e113,18,Female,Right handed,2021-07-26_20h58.45.503,MA Experiment 2,2021.1.2,MacIntel,55.55555556,,,,,,0,16,16,11,1
1.246,response_2,shortValid,NOVEL,DIAMOND,,,,,,MINER,EMERALD,short,resources/sound/trials/audio_stim_comp6.mp3,60fd866a4ae37ceb4179e113,18,Female,Right handed,2021-07-26_20h58.45.503,MA Experiment 2,2021.1.2,MacIntel,55.55555556,1,31,65,1,1,,,,,
1.079,response_2,longValid,FEVER,CAMERA,,,,,,PARTY,SANCTUARY,long,resources/sound/trials/audio_stim_human50.mp3,60fd866a4ae37ceb4179e113,18,Female,Right handed,2021-07-26_20h58.45.503,MA Experiment 2,2021.1.2,MacIntel,55.55555556,1,32,66,31,1,,,,,
1.361,response_1,shortFoil,LEADER,NEWSPAPER,,,,,,BRAINSTORM,GREEN NEEDLE,short,resources/sound/trials/audio_stim_original.mp3,60fd866a4ae37ceb4179e113,18,Female,Right handed,2021-07-26_20h58.45.503,MA Experiment 2,2021.1.2,MacIntel,55.55555556,1,33,67,16,1,,,,,
1.112,response_2,shortValid,CRYSTAL,ACROBAT,,,,,,SACRED,GALAXY,long,resources/sound/trials/audio_stim_comp1.mp3,60fd866a4ae37ceb4179e113,18,Female,Right handed,2021-07-26_20h58.45.503,MA Experiment 2,2021.1.2,MacIntel,55.55555556,2,0,68,24,1,,,,,
1.23,response_2,longValid,VALLEY,POLIO,,,,,,ROBBER,RATTLESNAKE,short,resources/sound/trials/audio_stim_human64.mp3,60fd866a4ae37ceb4179e113,18,Female,Right handed,2021-07-26_20h58.45.503,MA Experiment 2,2021.1.2,MacIntel,55.55555556,2,1,69,15,1,,,,,
1.013,response_2,shortFoil,SINGER,INDUSTRY,,,,,,PARTY,SANCTUARY,short,resources/sound/trials/audio_stim_human50.mp3,60fd866a4ae37ceb4179e113,18,Female,Right handed,2021-07-26_20h58.45.503,MA Experiment 2,2021.1.2,MacIntel,55.55555556,2,2,70,14,1,,,,,
0.946,response_2,,ANCHOR,RETAILER,,,,,,NAVY,RECTANGLE,long,resources/sound/catchTrials/audio_control_comp_project06.mp3,60fd866a4ae37ceb4179e113,18,Female,Right handed,2021-07-26_20h58.45.503,MA Experiment 2,2021.1.2,MacIntel,55.55555556,,,,,,0,15,15,22,1
1.695,response_2,shortFoil,SHOULDER,INFECTION,,,,,,MINER,EMERALD,short,resources/sound/trials/audio_stim_comp6.mp3,60fd866a4ae37ceb4179e113,18,Female,Right handed,2021-07-26_20h58.45.503,MA Experiment 2,2021.1.2,MacIntel,55.55555556,2,3,71,1,1,,,,,
0.795,response_1,shortFoil,MORNING,INTERVIEW,,,,,,WHISTLE,TREASURER,long,resources/sound/trials/audio_stim_comp12.mp3,60fd866a4ae37ceb4179e113,18,Female,Right handed,2021-07-26_20h58.45.503,MA Experiment 2,2021.1.2,MacIntel,55.55555556,2,4,72,20,1,,,,,
1.163,response_2,shortValid,CANTEEN,MECHANIC,,,,,,HARDWARE,OVERCOAT,short,resources/sound/trials/audio_stim_human35.mp3,60fd866a4ae37ceb4179e113,18,Female,Right handed,2021-07-26_20h58.45.503,MA Experiment 2,2021.1.2,MacIntel,55.55555556,2,5,73,8,1,,,,,
1.095,response_1,longFoil,TORTURE,MINISTER,,,,,,DAYLIGHT,MATERIAL,short,resources/sound/trials/audio_stim_human42.mp3,60fd866a4ae37ceb4179e113,18,Female,Right handed,2021-07-26_20h58.45.503,MA Experiment 2,2021.1.2,MacIntel,55.55555556,2,6,74,9,1,,,,,
1.196,response_2,,NURSERY,BUTTERFLY,,,,,,HOBBY,COLONY,long,resources/sound/catchTrials/audio_control_comp_project04.mp3,60fd866a4ae37ceb4179e113,18,Female,Right handed,2021-07-26_20h58.45.503,MA Experiment 2,2021.1.2,MacIntel,55.55555556,,,,,,0,30,30,18,1
1.129,response_2,longValid,OLIVE,ATTENDANT,,,,,,MINER,EMERALD,long,resources/sound/trials/audio_stim_comp6.mp3,60fd866a4ae37ceb4179e113,18,Female,Right handed,2021-07-26_20h58.45.503,MA Experiment 2,2021.1.2,MacIntel,55.55555556,2,7,75,18,1,,,,,
1.263,response_1,longFoil,PRINCESS,OXYGEN,,,,,,ATHLETE,IVORY,short,resources/sound/trials/audio_stim_comp57.mp3,60fd866a4ae37ceb4179e113,18,Female,Right handed,2021-07-26_20h58.45.503,MA Experiment 2,2021.1.2,MacIntel,55.55555556,2,8,76,5,1,,,,,
1.461,response_2,shortFoil,WRITING,FIREWOOD,,,,,,SACRED,GALAXY,short,resources/sound/trials/audio_stim_comp1.mp3,60fd866a4ae37ceb4179e113,18,Female,Right handed,2021-07-26_20h58.45.503,MA Experiment 2,2021.1.2,MacIntel,55.55555556,2,9,77,7,1,,,,,
1.179,response_1,shortValid,LIQUID,MICROSCOPE,,,,,,DRIZZLE,CARDINAL,short,resources/sound/trials/audio_stim_comp69.mp3,60fd866a4ae37ceb4179e113,18,Female,Right handed,2021-07-26_20h58.45.503,MA Experiment 2,2021.1.2,MacIntel,55.55555556,2,10,78,0,1,,,,,
0.913,response_2,,WIRE,TEMPERATURE,,,,,,IRIS,VIOLIN,long,resources/sound/catchTrials/audio_control_human_project12.mp3,60fd866a4ae37ceb4179e113,18,Female,Right handed,2021-07-26_20h58.45.503,MA Experiment 2,2021.1.2,MacIntel,55.55555556,,,,,,0,20,20,24,1
1.945,response_1,longValid,PIANO,PROPELLER,,,,,,WHISTLE,TREASURER,short,resources/sound/trials/audio_stim_comp12.mp3,60fd866a4ae37ceb4179e113,18,Female,Right handed,2021-07-26_20h58.45.503,MA Experiment 2,2021.1.2,MacIntel,55.55555556,2,11,79,3,1,,,,,
1.847,response_1,longFoil,RABBI,HANDKERCHIEF,,,,,,BRAINSTORM,GREEN NEEDLE,long,resources/sound/trials/audio_stim_original.mp3,60fd866a4ae37ceb4179e113,18,Female,Right handed,2021-07-26_20h58.45.503,MA Experiment 2,2021.1.2,MacIntel,55.55555556,2,12,80,33,1,,,,,
0.978,response_1,shortFoil,MUSCLE,CANDLELIGHT,,,,,,DAYLIGHT,MATERIAL,long,resources/sound/trials/audio_stim_human42.mp3,60fd866a4ae37ceb4179e113,18,Female,Right handed,2021-07-26_20h58.45.503,MA Experiment 2,2021.1.2,MacIntel,55.55555556,2,13,81,26,1,,,,,
1.33,response_2,shortValid,PICTURE,FAMILY,,,,,,WORKER,VISITOR,long,resources/sound/trials/audio_stim_comp17.mp3,60fd866a4ae37ceb4179e113,18,Female,Right handed,2021-07-26_20h58.45.503,MA Experiment 2,2021.1.2,MacIntel,55.55555556,2,14,82,23,1,,,,,
1.46,response_2,,DIAL,AMMONIA,,,,,,ICY,JITTERBUG,short,resources/sound/catchTrials/audio_control_comp_project08.mp3,60fd866a4ae37ceb4179e113,18,Female,Right handed,2021-07-26_20h58.45.503,MA Experiment 2,2021.1.2,MacIntel,55.55555556,,,,,,0,28,28,7,1
1.129,response_1,shortValid,CHIPMUNK,CLARINET,,,,,,WORKER,VISITOR,short,resources/sound/trials/audio_stim_comp17.mp3,60fd866a4ae37ceb4179e113,18,Female,Right handed,2021-07-26_20h58.45.503,MA Experiment 2,2021.1.2,MacIntel,55.55555556,2,15,83,6,1,,,,,
1.227,response_2,shortValid,TUMBLE,DESTROYER,,,,,,ROBBER,RATTLESNAKE,long,resources/sound/trials/audio_stim_human64.mp3,60fd866a4ae37ceb4179e113,18,Female,Right handed,2021-07-26_20h58.45.503,MA Experiment 2,2021.1.2,MacIntel,55.55555556,2,16,84,32,1,,,,,
1.327,response_1,longValid,PERSON,FURNITURE,,,,,,MARBLE,CUSTOMER,short,resources/sound/trials/audio_stim_comp65.mp3,60fd866a4ae37ceb4179e113,18,Female,Right handed,2021-07-26_20h58.45.503,MA Experiment 2,2021.1.2,MacIntel,55.55555556,2,17,85,4,1,,,,,
1.213,response_1,longFoil,KENNEL,CAPITAL,,,,,,BRAINSTORM,GREEN NEEDLE,short,resources/sound/trials/audio_stim_original.mp3,60fd866a4ae37ceb4179e113,18,Female,Right handed,2021-07-26_20h58.45.503,MA Experiment 2,2021.1.2,MacIntel,55.55555556,2,18,86,16,1,,,,,
1.163,response_2,,CRYSTAL,ANTIQUE,,,,,,ICY,JITTERBUG,long,resources/sound/catchTrials/audio_control_comp_project08.mp3,60fd866a4ae37ceb4179e113,18,Female,Right handed,2021-07-26_20h58.45.503,MA Experiment 2,2021.1.2,MacIntel,55.55555556,,,,,,0,8,8,23,1
1.248,response_2,longFoil,INCOME,AVENUE,,,,,,RECEIPT,LIMOUSINE,short,resources/sound/trials/audio_stim_comp40.mp3,60fd866a4ae37ceb4179e113,18,Female,Right handed,2021-07-26_20h58.45.503,MA Experiment 2,2021.1.2,MacIntel,55.55555556,2,19,87,2,1,,,,,
1.561,response_1,shortValid,VILLAGE,MOSQUITO,,,,,,MARBLE,CUSTOMER,long,resources/sound/trials/audio_stim_comp65.mp3,60fd866a4ae37ceb4179e113,18,Female,Right handed,2021-07-26_20h58.45.503,MA Experiment 2,2021.1.2,MacIntel,55.55555556,2,20,88,21,1,,,,,
1.361,response_1,shortFoil,NECKLACE,UMBRELLA,,,,,,CONCRETE,ENEMY,short,resources/sound/trials/audio_stim_human67.mp3,60fd866a4ae37ceb4179e113,18,Female,Right handed,2021-07-26_20h58.45.503,MA Experiment 2,2021.1.2,MacIntel,55.55555556,2,21,89,10,1,,,,,
1.511,response_2,shortValid,CURFEW,FISHERMAN,,,,,,MINER,EMERALD,long,resources/sound/trials/audio_stim_human6.mp3,60fd866a4ae37ceb4179e113,18,Female,Right handed,2021-07-26_20h58.45.503,MA Experiment 2,2021.1.2,MacIntel,55.55555556,2,22,90,30,1,,,,,
1.246,response_2,,CAPTAIN,ENAMEL,,,,,,NAVY,RECTANGLE,short,resources/sound/catchTrials/audio_control_human_project06.mp3,60fd866a4ae37ceb4179e113,18,Female,Right handed,2021-07-26_20h58.45.503,MA Experiment 2,2021.1.2,MacIntel,55.55555556,,,,,,0,26,26,14,1
0.829,response_1,shortFoil,HURDLE,ALCOHOL,,,,,,DRIZZLE,CARDINAL,long,resources/sound/trials/audio_stim_comp69.mp3,60fd866a4ae37ceb4179e113,18,Female,Right handed,2021-07-26_20h58.45.503,MA Experiment 2,2021.1.2,MacIntel,55.55555556,2,23,91,17,1,,,,,
1.329,response_2,longFoil,VESSEL,NEIGHBOURHOOD,,,,,,RUBBER,PROPERTY,short,resources/sound/trials/audio_stim_human0.mp3,60fd866a4ae37ceb4179e113,18,Female,Right handed,2021-07-26_20h58.45.503,MA Experiment 2,2021.1.2,MacIntel,55.55555556,2,24,92,12,1,,,,,
1.232,response_2,shortValid,FATHER,CITIZEN,,,,,,RUBBER,PROPERTY,long,resources/sound/trials/audio_stim_human0.mp3,60fd866a4ae37ceb4179e113,18,Female,Right handed,2021-07-26_20h58.45.503,MA Experiment 2,2021.1.2,MacIntel,55.55555556,2,25,93,29,1,,,,,
1.861,response_2,shortValid,HAMMER,REFEREE,,,,,,PAINTER,VEHICLE,short,resources/sound/trials/audio_stim_human47.mp3,60fd866a4ae37ceb4179e113,18,Female,Right handed,2021-07-26_20h58.45.503,MA Experiment 2,2021.1.2,MacIntel,55.55555556,2,26,94,11,1,,,,,
1.229,response_1,,DOORWAY,SETTLEMENT,,,,,,JUGGLER,DANDELION,short,resources/sound/catchTrials/audio_control_human_project09.mp3,60fd866a4ae37ceb4179e113,18,Female,Right handed,2021-07-26_20h58.45.503,MA Experiment 2,2021.1.2,MacIntel,55.55555556,,,,,,0,4,4,15,1
1.062,response_2,longFoil,BUTTER,ACROBAT,,,,,,HARDWARE,OVERCOAT,long,resources/sound/trials/audio_stim_human35.mp3,60fd866a4ae37ceb4179e113,18,Female,Right handed,2021-07-26_20h58.45.503,MA Experiment 2,2021.1.2,MacIntel,55.55555556,2,27,95,25,1,,,,,
1.229,response_2,longFoil,SCOOTER,HURRICANE,,,,,,PARTY,SANCTUARY,long,resources/sound/trials/audio_stim_human50.mp3,60fd866a4ae37ceb4179e113,18,Female,Right handed,2021-07-26_20h58.45.503,MA Experiment 2,2021.1.2,MacIntel,55.55555556,2,28,96,31,1,,,,,
2.162,response_1,longFoil,VAPOUR,GRASSHOPPER,,,,,,PAINTER,VEHICLE,long,resources/sound/trials/audio_stim_human47.mp3,60fd866a4ae37ceb4179e113,18,Female,Right handed,2021-07-26_20h58.45.503,MA Experiment 2,2021.1.2,MacIntel,55.55555556,2,29,97,28,1,,,,,
1.064,response_2,longFoil,FERTILE,PHYSICIAN,,,,,,MINER,EMERALD,short,resources/sound/trials/audio_stim_human6.mp3,60fd866a4ae37ceb4179e113,18,Female,Right handed,2021-07-26_20h58.45.503,MA Experiment 2,2021.1.2,MacIntel,55.55555556,2,30,98,13,1,,,,,
1.412,response_1,,RUSTY,GALLERY,,,,,,POISON,REVOLVER,long,resources/sound/catchTrials/audio_control_human_project01.mp3,60fd866a4ae37ceb4179e113,18,Female,Right handed,2021-07-26_20h58.45.503,MA Experiment 2,2021.1.2,MacIntel,55.55555556,,,,,,0,31,31,25,1
1.078,response_1,shortFoil,UNCLE,INJURY,,,,,,CONCRETE,ENEMY,long,resources/sound/trials/audio_stim_human67.mp3,60fd866a4ae37ceb4179e113,18,Female,Right handed,2021-07-26_20h58.45.503,MA Experiment 2,2021.1.2,MacIntel,55.55555556,2,31,99,27,1,,,,,
1.279,response_2,shortFoil,SODA,PROJECTOR,,,,,,RECEIPT,LIMOUSINE,long,resources/sound/trials/audio_stim_comp40.mp3,60fd866a4ae37ceb4179e113,18,Female,Right handed,2021-07-26_20h58.45.503,MA Experiment 2,2021.1.2,MacIntel,55.55555556,2,32,100,19,1,,,,,
1.312,response_1,shortValid,POLO,MONUMENT,,,,,,ATHLETE,IVORY,long,resources/sound/trials/audio_stim_comp57.mp3,60fd866a4ae37ceb4179e113,18,Female,Right handed,2021-07-26_20h58.45.503,MA Experiment 2,2021.1.2,MacIntel,55.55555556,2,33,101,22,1,,,,,
1.098,response_2,longFoil,DIVING,VINEGAR,,,,,,RECEIPT,LIMOUSINE,long,resources/sound/trials/audio_stim_comp40.mp3,60fd866a4ae37ceb4179e113,18,Female,Right handed,2021-07-26_20h58.45.503,MA Experiment 2,2021.1.2,MacIntel,55.55555556,3,0,102,19,1,,,,,
1.812,response_1,shortValid,NEIGHBOUR,GOVERNMENT,,,,,,BRAINSTORM,GREEN NEEDLE,short,resources/sound/trials/audio_stim_original.mp3,60fd866a4ae37ceb4179e113,18,Female,Right handed,2021-07-26_20h58.45.503,MA Experiment 2,2021.1.2,MacIntel,55.55555556,3,1,103,16,1,,,,,
0.946,response_2,longValid,FAIRY,ENVELOPE,,,,,,ROBBER,RATTLESNAKE,long,resources/sound/trials/audio_stim_human64.mp3,60fd866a4ae37ceb4179e113,18,Female,Right handed,2021-07-26_20h58.45.503,MA Experiment 2,2021.1.2,MacIntel,55.55555556,3,2,104,32,1,,,,,
1.28,response_1,,PIPING,OPENING,,,,,,POISON,REVOLVER,short,resources/sound/catchTrials/audio_control_human_project01.mp3,60fd866a4ae37ceb4179e113,18,Female,Right handed,2021-07-26_20h58.45.503,MA Experiment 2,2021.1.2,MacIntel,55.55555556,,,,,,0,14,14,9,1
1.645,response_2,shortFoil,LIGHTNING,INSTRUMENT,,,,,,PAINTER,VEHICLE,short,resources/sound/trials/audio_stim_human47.mp3,60fd866a4ae37ceb4179e113,18,Female,Right handed,2021-07-26_20h58.45.503,MA Experiment 2,2021.1.2,MacIntel,55.55555556,3,3,105,11,1,,,,,
1.144,response_1,longValid,MEASLES,CHOCOLATE,,,,,,MARBLE,CUSTOMER,long,resources/sound/trials/audio_stim_comp65.mp3,60fd866a4ae37ceb4179e113,18,Female,Right handed,2021-07-26_20h58.45.503,MA Experiment 2,2021.1.2,MacIntel,55.55555556,3,4,106,21,1,,,,,
1.527,response_1,longFoil,MURDER,PROFESSOR,,,,,,DRIZZLE,CARDINAL,short,resources/sound/trials/audio_stim_comp69.mp3,60fd866a4ae37ceb4179e113,18,Female,Right handed,2021-07-26_20h58.45.503,MA Experiment 2,2021.1.2,MacIntel,55.55555556,3,5,107,0,1,,,,,
0.929,response_1,longValid,TWEEZER,INSTITUTE,,,,,,CONCRETE,ENEMY,short,resources/sound/trials/audio_stim_human67.mp3,60fd866a4ae37ceb4179e113,18,Female,Right handed,2021-07-26_20h58.45.503,MA Experiment 2,2021.1.2,MacIntel,55.55555556,3,6,108,10,1,,,,,
0.944,response_2,,PODIUM,CARNATION,,,,,,CORNER,ENGINEER,short,resources/sound/catchTrials/audio_control_comp_project14.mp3,60fd866a4ae37ceb4179e113,18,Female,Right handed,2021-07-26_20h58.45.503,MA Experiment 2,2021.1.2,MacIntel,55.55555556,,,,,,0,10,10,1,1
0.896,response_1,shortValid,HAMSTER,SAXOPHONE,,,,,,DAYLIGHT,MATERIAL,short,resources/sound/trials/audio_stim_human42.mp3,60fd866a4ae37ceb4179e113,18,Female,Right handed,2021-07-26_20h58.45.503,MA Experiment 2,2021.1.2,MacIntel,55.55555556,3,7,109,9,1,,,,,
1.162,response_2,shortFoil,DWELLER,HEADQUARTERS,,,,,,MARBLE,CUSTOMER,short,resources/sound/trials/audio_stim_comp65.mp3,60fd866a4ae37ceb4179e113,18,Female,Right handed,2021-07-26_20h58.45.503,MA Experiment 2,2021.1.2,MacIntel,55.55555556,3,8,110,4,1,,,,,
1.111,response_2,shortFoil,EVENING,POLICEMAN,,,,,,WORKER,VISITOR,short,resources/sound/trials/audio_stim_comp17.mp3,60fd866a4ae37ceb4179e113,18,Female,Right handed,2021-07-26_20h58.45.503,MA Experiment 2,2021.1.2,MacIntel,55.55555556,3,9,111,6,1,,,,,
1.095,response_2,shortFoil,STATION,ORNAMENT,,,,,,PARTY,SANCTUARY,long,resources/sound/trials/audio_stim_human50.mp3,60fd866a4ae37ceb4179e113,18,Female,Right handed,2021-07-26_20h58.45.503,MA Experiment 2,2021.1.2,MacIntel,55.55555556,3,10,112,31,1,,,,,
1.179,response_2,,SOFA,DISSECTION,,,,,,CORNER,ENGINEER,short,resources/sound/catchTrials/audio_control_human_project14.mp3,60fd866a4ae37ceb4179e113,18,Female,Right handed,2021-07-26_20h58.45.503,MA Experiment 2,2021.1.2,MacIntel,55.55555556,,,,,,0,21,21,10,1
1.045,response_2,longFoil,FEVER,HEROIN,,,,,,MINER,EMERALD,short,resources/sound/trials/audio_stim_comp6.mp3,60fd866a4ae37ceb4179e113,18,Female,Right handed,2021-07-26_20h58.45.503,MA Experiment 2,2021.1.2,MacIntel,55.55555556,3,11,113,1,1,,,,,
1.128,response_2,shortValid,WALRUS,CORRIDOR,,,,,,PARTY,SANCTUARY,short,resources/sound/trials/audio_stim_human50.mp3,60fd866a4ae37ceb4179e113,18,Female,Right handed,2021-07-26_20h58.45.503,MA Experiment 2,2021.1.2,MacIntel,55.55555556,3,12,114,14,1,,,,,
1.562,response_2,shortFoil,INVOICE,APPLIANCE,,,,,,RECEIPT,LIMOUSINE,short,resources/sound/trials/audio_stim_comp40.mp3,60fd866a4ae37ceb4179e113,18,Female,Right handed,2021-07-26_20h58.45.503,MA Experiment 2,2021.1.2,MacIntel,55.55555556,3,13,115,2,1,,,,,
1.563,response_1,shortValid,DECOY,TANGERINE,,,,,,DRIZZLE,CARDINAL,long,resources/sound/trials/audio_stim_comp69.mp3,60fd866a4ae37ceb4179e113,18,Female,Right handed,2021-07-26_20h58.45.503,MA Experiment 2,2021.1.2,MacIntel,55.55555556,3,14,116,17,1,,,,,
1.162,response_2,,JURY,ASBESTOS,,,,,,BORDER,ALGEBRA,long,resources/sound/catchTrials/audio_control_comp_project00.mp3,60fd866a4ae37ceb4179e113,18,Female,Right handed,2021-07-26_20h58.45.503,MA Experiment 2,2021.1.2,MacIntel,55.55555556,,,,,,0,18,18,16,1
1.213,response_2,shortValid,BURNER,MOLECULE,,,,,,HARDWARE,OVERCOAT,long,resources/sound/trials/audio_stim_human35.mp3,60fd866a4ae37ceb4179e113,18,Female,Right handed,2021-07-26_20h58.45.503,MA Experiment 2,2021.1.2,MacIntel,55.55555556,3,15,117,25,1,,,,,
1.079,response_1,shortValid,EARTHWORM,CABINET,,,,,,DAYLIGHT,MATERIAL,long,resources/sound/trials/audio_stim_human42.mp3,60fd866a4ae37ceb4179e113,18,Female,Right handed,2021-07-26_20h58.45.503,MA Experiment 2,2021.1.2,MacIntel,55.55555556,3,16,118,26,1,,,,,
1.279,response_2,shortValid,HARBOUR,DIAMOND,,,,,,MINER,EMERALD,short,resources/sound/trials/audio_stim_human6.mp3,60fd866a4ae37ceb4179e113,18,Female,Right handed,2021-07-26_20h58.45.503,MA Experiment 2,2021.1.2,MacIntel,55.55555556,3,17,119,13,1,,,,,
1.731,response_2,longValid,NATIVE,INSTRUCTOR,,,,,,MINER,EMERALD,long,resources/sound/trials/audio_stim_human6.mp3,60fd866a4ae37ceb4179e113,18,Female,Right handed,2021-07-26_20h58.45.503,MA Experiment 2,2021.1.2,MacIntel,55.55555556,3,18,120,30,1,,,,,
1.079,response_2,,GRADUATE,CIGARETTE,,,,,,SPINACH,APRICOT,long,resources/sound/catchTrials/audio_control_comp_project18.mp3,60fd866a4ae37ceb4179e113,18,Female,Right handed,2021-07-26_20h58.45.503,MA Experiment 2,2021.1.2,MacIntel,55.55555556,,,,,,0,2,2,21,1
1.395,response_2,shortFoil,DUEL,ALPHABET,,,,,,RUBBER,PROPERTY,long,resources/sound/trials/audio_stim_human0.mp3,60fd866a4ae37ceb4179e113,18,Female,Right handed,2021-07-26_20h58.45.503,MA Experiment 2,2021.1.2,MacIntel,55.55555556,3,19,121,29,1,,,,,
1.013,response_1,longFoil,BISHOP,CAMERA,,,,,,SACRED,GALAXY,long,resources/sound/trials/audio_stim_comp1.mp3,60fd866a4ae37ceb4179e113,18,Female,Right handed,2021-07-26_20h58.45.503,MA Experiment 2,2021.1.2,MacIntel,55.55555556,3,20,122,24,1,,,,,
1.045,response_1,shortFoil,MURAL,SPECIALIST,,,,,,BRAINSTORM,GREEN NEEDLE,long,resources/sound/trials/audio_stim_original.mp3,60fd866a4ae37ceb4179e113,18,Female,Right handed,2021-07-26_20h58.45.503,MA Experiment 2,2021.1.2,MacIntel,55.55555556,3,21,123,33,1,,,,,
1.346,response_2,longValid,BERRY,ADMIRAL,,,,,,WORKER,VISITOR,long,resources/sound/trials/audio_stim_comp17.mp3,60fd866a4ae37ceb4179e113,18,Female,Right handed,2021-07-26_20h58.45.503,MA Experiment 2,2021.1.2,MacIntel,55.55555556,3,22,124,23,1,,,,,
1.03,response_1,,SEGMENT,AMBULANCE,,,,,,VIOLET,LUBRICANT,long,resources/sound/catchTrials/audio_control_comp_project07.mp3,60fd866a4ae37ceb4179e113,18,Female,Right handed,2021-07-26_20h58.45.503,MA Experiment 2,2021.1.2,MacIntel,55.55555556,,,,,,0,17,17,19,1
1.297,response_1,shortValid,SHEEPSKIN,POTATO,,,,,,SACRED,GALAXY,short,resources/sound/trials/audio_stim_comp1.mp3,60fd866a4ae37ceb4179e113,18,Female,Right handed,2021-07-26_20h58.45.503,MA Experiment 2,2021.1.2,MacIntel,55.55555556,3,23,125,7,1,,,,,
1.314,response_2,longValid,PATIENT,EMULSION,,,,,,RUBBER,PROPERTY,short,resources/sound/trials/audio_stim_human0.mp3,60fd866a4ae37ceb4179e113,18,Female,Right handed,2021-07-26_20h58.45.503,MA Experiment 2,2021.1.2,MacIntel,55.55555556,3,24,126,12,1,,,,,
1.644,response_2,shortFoil,CABIN,JANITOR,,,,,,ROBBER,RATTLESNAKE,short,resources/sound/trials/audio_stim_human64.mp3,60fd866a4ae37ceb4179e113,18,Female,Right handed,2021-07-26_20h58.45.503,MA Experiment 2,2021.1.2,MacIntel,55.55555556,3,25,127,15,1,,,,,
1.363,response_1,longValid,DANCER,GYMNASTICS,,,,,,ATHLETE,IVORY,long,resources/sound/trials/audio_stim_comp57.mp3,60fd866a4ae37ceb4179e113,18,Female,Right handed,2021-07-26_20h58.45.503,MA Experiment 2,2021.1.2,MacIntel,55.55555556,3,26,128,22,1,,,,,
0.878,response_2,,STOCKING,ICICLE,,,,,,NAVY,RECTANGLE,long,resources/sound/catchTrials/audio_control_human_project06.mp3,60fd866a4ae37ceb4179e113,18,Female,Right handed,2021-07-26_20h58.45.503,MA Experiment 2,2021.1.2,MacIntel,55.55555556,,,,,,0,5,5,30,1
1.445,response_2,shortFoil,WINDOW,LEMONADE,,,,,,PAINTER,VEHICLE,long,resources/sound/trials/audio_stim_human47.mp3,60fd866a4ae37ceb4179e113,18,Female,Right handed,2021-07-26_20h58.45.503,MA Experiment 2,2021.1.2,MacIntel,55.55555556,3,27,129,28,1,,,,,
2.23,response_2,longValid,ACRE,MINERAL,,,,,,WHISTLE,TREASURER,long,resources/sound/trials/audio_stim_comp12.mp3,60fd866a4ae37ceb4179e113,18,Female,Right handed,2021-07-26_20h58.45.503,MA Experiment 2,2021.1.2,MacIntel,55.55555556,3,28,130,20,1,,,,,
1.33,response_2,shortFoil,GIRDLE,GORILLA,,,,,,MINER,EMERALD,long,resources/sound/trials/audio_stim_comp6.mp3,60fd866a4ae37ceb4179e113,18,Female,Right handed,2021-07-26_20h58.45.503,MA Experiment 2,2021.1.2,MacIntel,55.55555556,3,29,131,18,1,,,,,
1.462,response_2,longValid,SADDLE,BEVERAGE,,,,,,HARDWARE,OVERCOAT,short,resources/sound/trials/audio_stim_human35.mp3,60fd866a4ae37ceb4179e113,18,Female,Right handed,2021-07-26_20h58.45.503,MA Experiment 2,2021.1.2,MacIntel,55.55555556,3,30,132,8,1,,,,,
0.88,response_2,,BEETLE,COMMITTEE,,,,,,SPINACH,APRICOT,short,resources/sound/catchTrials/audio_control_comp_project18.mp3,60fd866a4ae37ceb4179e113,18,Female,Right handed,2021-07-26_20h58.45.503,MA Experiment 2,2021.1.2,MacIntel,55.55555556,,,,,,0,29,29,5,1
1.763,response_1,shortFoil,TEMPLE,CONVENTION,,,,,,WHISTLE,TREASURER,short,resources/sound/trials/audio_stim_comp12.mp3,60fd866a4ae37ceb4179e113,18,Female,Right handed,2021-07-26_20h58.45.503,MA Experiment 2,2021.1.2,MacIntel,55.55555556,3,31,133,3,1,,,,,
0.863,response_1,longValid,KERNEL,HONEYMOON,,,,,,ATHLETE,IVORY,short,resources/sound/trials/audio_stim_comp57.mp3,60fd866a4ae37ceb4179e113,18,Female,Right handed,2021-07-26_20h58.45.503,MA Experiment 2,2021.1.2,MacIntel,55.55555556,3,32,134,5,1,,,,,
1.429,response_1,longFoil,LOBSTER,MESSENGER,,,,,,CONCRETE,ENEMY,long,resources/sound/trials/audio_stim_human67.mp3,60fd866a4ae37ceb4179e113,18,Female,Right handed,2021-07-26_20h58.45.503,MA Experiment 2,2021.1.2,MacIntel,55.55555556,3,33,135,27,1,,,,,
