response.time,response,cueTarget,rand_foil_1,rand_foil_2,prac_trials.thisRepN,prac_trials.thisTrialN,prac_trials.thisN,prac_trials.thisIndex,prac_trials.ran,word_1,word_2,cue,file_path,participant,age,gender,handedness,date,expName,psychopyVersion,OS,frameRate,trials.thisRepN,trials.thisTrialN,trials.thisN,trials.thisIndex,trials.ran,catchTrials.thisRepN,catchTrials.thisTrialN,catchTrials.thisN,catchTrials.thisIndex,catchTrials.ran
2.9953,response_2,longValid,CANTEEN,ACROBAT,0,0,0,2,1,RECENT,TOBACCO,short,resources/sound/prac_trials/practice_cue2.mp3,60fd35daf1ef7292c0341f17,20,Female,Right handed,2021-07-26_21h59.39.334,MA Experiment 2,2021.1.2,Win32,59.97720866,,,,,,,,,,
2.3383,response_2,shortValid,WIRE,PROJECTOR,0,1,1,1,1,CABLE,REPUBLIC,short,resources/sound/prac_trials/practice_cue_human1.mp3,60fd35daf1ef7292c0341f17,20,Female,Right handed,2021-07-26_21h59.39.334,MA Experiment 2,2021.1.2,Win32,59.97720866,,,,,,,,,,
,,longValid,WAFER,CLARINET,0,2,2,0,1,AARDVARK,FALLACY,short,resources/sound/prac_trials/practice_cue0.mp3,60fd35daf1ef7292c0341f17,20,Female,Right handed,2021-07-26_21h59.39.334,MA Experiment 2,2021.1.2,Win32,59.97720866,,,,,,,,,,
1.059,response_2,longValid,OFFICE,INSTRUMENT,0,3,3,6,1,VACANT,SALVATION,long,resources/sound/prac_trials/practice_cue6.mp3,60fd35daf1ef7292c0341f17,20,Female,Right handed,2021-07-26_21h59.39.334,MA Experiment 2,2021.1.2,Win32,59.97720866,,,,,,,,,,
2.3417,response_4,shortFoil,CABIN,HONEYMOON,0,4,4,7,1,BUCKLE,WALLABY,long,resources/sound/prac_trials/practice_cue_human7.mp3,60fd35daf1ef7292c0341f17,20,Female,Right handed,2021-07-26_21h59.39.334,MA Experiment 2,2021.1.2,Win32,59.97720866,,,,,,,,,,
1.4299,response_1,longFoil,POLO,BEVERAGE,0,5,5,11,1,KETCHUP,GONDOLA,long,resources/sound/prac_trials/practice_cue_human11.mp3,60fd35daf1ef7292c0341f17,20,Female,Right handed,2021-07-26_21h59.39.334,MA Experiment 2,2021.1.2,Win32,59.97720866,,,,,,,,,,
1.6763,response_2,longValid,ACRE,REFEREE,0,6,6,9,1,GRUMPY,LABYRINTH,long,resources/sound/prac_trials/practice_cue_human9.mp3,60fd35daf1ef7292c0341f17,20,Female,Right handed,2021-07-26_21h59.39.334,MA Experiment 2,2021.1.2,Win32,59.97720866,,,,,,,,,,
0.9752,response_1,longValid,LEADER,POTATO,0,7,7,10,1,SAFFRON,JAVELIN,long,resources/sound/prac_trials/practice_cue10.mp3,60fd35daf1ef7292c0341f17,20,Female,Right handed,2021-07-26_21h59.39.334,MA Experiment 2,2021.1.2,Win32,59.97720866,,,,,,,,,,
0.8745,response_2,shortValid,JURY,CARNATION,0,8,8,5,1,NONSENSE,OASIS,short,resources/sound/prac_trials/practice_cue_human5.mp3,60fd35daf1ef7292c0341f17,20,Female,Right handed,2021-07-26_21h59.39.334,MA Experiment 2,2021.1.2,Win32,59.97720866,,,,,,,,,,
1.308,response_2,shortValid,CURFEW,UMBRELLA,0,9,9,4,1,FIZZY,ELECTRIC,short,resources/sound/prac_trials/practice_cue4.mp3,60fd35daf1ef7292c0341f17,20,Female,Right handed,2021-07-26_21h59.39.334,MA Experiment 2,2021.1.2,Win32,59.97720866,,,,,,,,,,
0.9252,response_1,shortFoil,TUMBLE,CORRIDOR,0,10,10,8,1,DAGGER,EMPHASIS,long,resources/sound/prac_trials/practice_cue8.mp3,60fd35daf1ef7292c0341f17,20,Female,Right handed,2021-07-26_21h59.39.334,MA Experiment 2,2021.1.2,Win32,59.97720866,,,,,,,,,,
0.841,response_2,longValid,VILLAGE,CANDLELIGHT,0,11,11,3,1,EAGER,QUALIFY,short,resources/sound/prac_trials/practice_cue_human3.mp3,60fd35daf1ef7292c0341f17,20,Female,Right handed,2021-07-26_21h59.39.334,MA Experiment 2,2021.1.2,Win32,59.97720866,,,,,,,,,,
1.1883,response_2,shortFoil,VALLEY,POLIO,,,,,,DRIZZLE,CARDINAL,long,resources/sound/trials/audio_stim_comp69.mp3,60fd35daf1ef7292c0341f17,20,Female,Right handed,2021-07-26_21h59.39.334,MA Experiment 2,2021.1.2,Win32,59.97720866,0,0,0,17,1,,,,,
1.3128,response_2,shortValid,KENNEL,POLICEMAN,,,,,,MARBLE,CUSTOMER,long,resources/sound/trials/audio_stim_comp65.mp3,60fd35daf1ef7292c0341f17,20,Female,Right handed,2021-07-26_21h59.39.334,MA Experiment 2,2021.1.2,Win32,59.97720866,0,1,1,21,1,,,,,
2.0434,response_1,longValid,MEASLES,EMULSION,,,,,,MARBLE,CUSTOMER,short,resources/sound/trials/audio_stim_comp65.mp3,60fd35daf1ef7292c0341f17,20,Female,Right handed,2021-07-26_21h59.39.334,MA Experiment 2,2021.1.2,Win32,59.97720866,0,2,2,4,1,,,,,
1.0689,response_2,,LIGHTNING,MERCURY,,,,,,CORNER,ENGINEER,long,resources/sound/catchTrials/audio_control_comp_project14.mp3,60fd35daf1ef7292c0341f17,20,Female,Right handed,2021-07-26_21h59.39.334,MA Experiment 2,2021.1.2,Win32,59.97720866,,,,,,0,22,22,17,1
1.6426,response_2,longFoil,RUSTY,COMMITTEE,,,,,,CONCRETE,ENEMY,short,resources/sound/trials/audio_stim_human67.mp3,60fd35daf1ef7292c0341f17,20,Female,Right handed,2021-07-26_21h59.39.334,MA Experiment 2,2021.1.2,Win32,59.97720866,0,3,3,10,1,,,,,
1.8278,response_2,shortFoil,UNCLE,ATHLETICS,,,,,,SACRED,GALAXY,long,resources/sound/trials/audio_stim_comp1.mp3,60fd35daf1ef7292c0341f17,20,Female,Right handed,2021-07-26_21h59.39.334,MA Experiment 2,2021.1.2,Win32,59.97720866,0,4,4,24,1,,,,,
1.0621,response_1,longFoil,PRINCESS,ENVELOPE,,,,,,MINER,EMERALD,long,resources/sound/trials/audio_stim_comp6.mp3,60fd35daf1ef7292c0341f17,20,Female,Right handed,2021-07-26_21h59.39.334,MA Experiment 2,2021.1.2,Win32,59.97720866,0,5,5,18,1,,,,,
1.8311,response_2,shortValid,KERNEL,MOLECULE,,,,,,MINER,EMERALD,short,resources/sound/trials/audio_stim_comp6.mp3,60fd35daf1ef7292c0341f17,20,Female,Right handed,2021-07-26_21h59.39.334,MA Experiment 2,2021.1.2,Win32,59.97720866,0,6,6,1,1,,,,,
1.173,response_1,,FAIRY,CITIZEN,,,,,,VIOLET,LUBRICANT,long,resources/sound/catchTrials/audio_control_human_project07.mp3,60fd35daf1ef7292c0341f17,20,Female,Right handed,2021-07-26_21h59.39.334,MA Experiment 2,2021.1.2,Win32,59.97720866,,,,,,0,21,21,28,1
1.344,response_1,longFoil,NEIGHBOUR,CROCODILE,,,,,,ROBBER,RATTLESNAKE,short,resources/sound/trials/audio_stim_human64.mp3,60fd35daf1ef7292c0341f17,20,Female,Right handed,2021-07-26_21h59.39.334,MA Experiment 2,2021.1.2,Win32,59.97720866,0,7,7,15,1,,,,,
1.5762,response_1,shortValid,BERRY,ADMIRAL,,,,,,BRAINSTORM,GREEN NEEDLE,long,resources/sound/trials/audio_stim_original.mp3,60fd35daf1ef7292c0341f17,20,Female,Right handed,2021-07-26_21h59.39.334,MA Experiment 2,2021.1.2,Win32,59.97720866,0,8,8,33,1,,,,,
1.8912,response_1,longValid,VESSEL,FIREWOOD,,,,,,RECEIPT,LIMOUSINE,long,resources/sound/trials/audio_stim_comp40.mp3,60fd35daf1ef7292c0341f17,20,Female,Right handed,2021-07-26_21h59.39.334,MA Experiment 2,2021.1.2,Win32,59.97720866,0,9,9,19,1,,,,,
2.077,response_2,shortValid,HURDLE,OXYGEN,,,,,,PARTY,SANCTUARY,long,resources/sound/trials/audio_stim_human50.mp3,60fd35daf1ef7292c0341f17,20,Female,Right handed,2021-07-26_21h59.39.334,MA Experiment 2,2021.1.2,Win32,59.97720866,0,10,10,31,1,,,,,
1.2583,response_2,,PIANO,JANITOR,,,,,,ICY,JITTERBUG,long,resources/sound/catchTrials/audio_control_comp_project08.mp3,60fd35daf1ef7292c0341f17,20,Female,Right handed,2021-07-26_21h59.39.334,MA Experiment 2,2021.1.2,Win32,59.97720866,,,,,,0,30,30,23,1
2.1247,response_1,longFoil,PODIUM,AMMONIA,,,,,,ROBBER,RATTLESNAKE,long,resources/sound/trials/audio_stim_human64.mp3,60fd35daf1ef7292c0341f17,20,Female,Right handed,2021-07-26_21h59.39.334,MA Experiment 2,2021.1.2,Win32,59.97720866,0,11,11,32,1,,,,,
1.6265,response_2,longValid,BUTTER,TANGERINE,,,,,,DRIZZLE,CARDINAL,short,resources/sound/trials/audio_stim_comp69.mp3,60fd35daf1ef7292c0341f17,20,Female,Right handed,2021-07-26_21h59.39.334,MA Experiment 2,2021.1.2,Win32,59.97720866,0,12,12,0,1,,,,,
1.3937,response_2,shortFoil,MURAL,GYMNASTICS,,,,,,ATHLETE,IVORY,long,resources/sound/trials/audio_stim_comp57.mp3,60fd35daf1ef7292c0341f17,20,Female,Right handed,2021-07-26_21h59.39.334,MA Experiment 2,2021.1.2,Win32,59.97720866,0,13,13,22,1,,,,,
2.5068,response_1,shortFoil,BISHOP,INTERVIEW,,,,,,HARDWARE,OVERCOAT,long,resources/sound/trials/audio_stim_human35.mp3,60fd35daf1ef7292c0341f17,20,Female,Right handed,2021-07-26_21h59.39.334,MA Experiment 2,2021.1.2,Win32,59.97720866,0,14,14,25,1,,,,,
1.2099,response_2,,INVOICE,PHOTOGRAPH,,,,,,SPINACH,APRICOT,long,resources/sound/catchTrials/audio_control_comp_project18.mp3,60fd35daf1ef7292c0341f17,20,Female,Right handed,2021-07-26_21h59.39.334,MA Experiment 2,2021.1.2,Win32,59.97720866,,,,,,0,7,7,21,1
1.5792,response_1,shortValid,TRAITOR,CONVENTION,,,,,,WHISTLE,TREASURER,long,resources/sound/trials/audio_stim_comp12.mp3,60fd35daf1ef7292c0341f17,20,Female,Right handed,2021-07-26_21h59.39.334,MA Experiment 2,2021.1.2,Win32,59.97720866,0,15,15,20,1,,,,,
1.439,response_2,shortValid,CEREAL,ICICLE,,,,,,WORKER,VISITOR,long,resources/sound/trials/audio_stim_comp17.mp3,60fd35daf1ef7292c0341f17,20,Female,Right handed,2021-07-26_21h59.39.334,MA Experiment 2,2021.1.2,Win32,59.97720866,0,16,16,23,1,,,,,
1.6077,response_2,shortValid,MORNING,ENAMEL,,,,,,MINER,EMERALD,long,resources/sound/trials/audio_stim_human6.mp3,60fd35daf1ef7292c0341f17,20,Female,Right handed,2021-07-26_21h59.39.334,MA Experiment 2,2021.1.2,Win32,59.97720866,0,17,17,30,1,,,,,
1.4097,response_2,longFoil,CAPTAIN,ALPHABET,,,,,,RECEIPT,LIMOUSINE,short,resources/sound/trials/audio_stim_comp40.mp3,60fd35daf1ef7292c0341f17,20,Female,Right handed,2021-07-26_21h59.39.334,MA Experiment 2,2021.1.2,Win32,59.97720866,0,18,18,2,1,,,,,
1.3597,response_2,,VAPOUR,LECTURER,,,,,,HOBBY,COLONY,long,resources/sound/catchTrials/audio_control_human_project04.mp3,60fd35daf1ef7292c0341f17,20,Female,Right handed,2021-07-26_21h59.39.334,MA Experiment 2,2021.1.2,Win32,59.97720866,,,,,,0,29,29,27,1
1.558,response_1,shortFoil,STOCKING,INDUSTRY,,,,,,WORKER,VISITOR,short,resources/sound/trials/audio_stim_comp17.mp3,60fd35daf1ef7292c0341f17,20,Female,Right handed,2021-07-26_21h59.39.334,MA Experiment 2,2021.1.2,Win32,59.97720866,0,19,19,6,1,,,,,
1.0964,response_1,shortValid,EVENING,DESTROYER,,,,,,DAYLIGHT,MATERIAL,long,resources/sound/trials/audio_stim_human42.mp3,60fd35daf1ef7292c0341f17,20,Female,Right handed,2021-07-26_21h59.39.334,MA Experiment 2,2021.1.2,Win32,59.97720866,0,20,20,26,1,,,,,
2.0774,response_1,shortValid,NOVEL,ANTIQUE,,,,,,MINER,EMERALD,short,resources/sound/trials/audio_stim_human6.mp3,60fd35daf1ef7292c0341f17,20,Female,Right handed,2021-07-26_21h59.39.334,MA Experiment 2,2021.1.2,Win32,59.97720866,0,21,21,13,1,,,,,
1.109,response_2,shortValid,WALRUS,CIGARETTE,,,,,,PARTY,SANCTUARY,short,resources/sound/trials/audio_stim_human50.mp3,60fd35daf1ef7292c0341f17,20,Female,Right handed,2021-07-26_21h59.39.334,MA Experiment 2,2021.1.2,Win32,59.97720866,0,22,22,14,1,,,,,
1.0273,response_2,,MISTRESS,ORNAMENT,,,,,,HOBBY,COLONY,short,resources/sound/catchTrials/audio_control_comp_project04.mp3,60fd35daf1ef7292c0341f17,20,Female,Right handed,2021-07-26_21h59.39.334,MA Experiment 2,2021.1.2,Win32,59.97720866,,,,,,0,20,20,2,1
1.2298,response_2,longFoil,CIGAR,HURRICANE,,,,,,CONCRETE,ENEMY,long,resources/sound/trials/audio_stim_human67.mp3,60fd35daf1ef7292c0341f17,20,Female,Right handed,2021-07-26_21h59.39.334,MA Experiment 2,2021.1.2,Win32,59.97720866,0,23,23,27,1,,,,,
1.7295,response_1,shortValid,WRITING,INJURY,,,,,,BRAINSTORM,GREEN NEEDLE,short,resources/sound/trials/audio_stim_original.mp3,60fd35daf1ef7292c0341f17,20,Female,Right handed,2021-07-26_21h59.39.334,MA Experiment 2,2021.1.2,Win32,59.97720866,0,24,24,16,1,,,,,
2.5465,response_1,shortValid,DWELLER,CATHEDRAL,,,,,,PAINTER,VEHICLE,short,resources/sound/trials/audio_stim_human47.mp3,60fd35daf1ef7292c0341f17,20,Female,Right handed,2021-07-26_21h59.39.334,MA Experiment 2,2021.1.2,Win32,59.97720866,0,25,25,11,1,,,,,
1.4446,response_1,longValid,SADDLE,ASBESTOS,,,,,,RUBBER,PROPERTY,short,resources/sound/trials/audio_stim_human0.mp3,60fd35daf1ef7292c0341f17,20,Female,Right handed,2021-07-26_21h59.39.334,MA Experiment 2,2021.1.2,Win32,59.97720866,0,26,26,12,1,,,,,
1.7756,response_2,,MOONLIGHT,FAMILY,,,,,,JOURNAL,ROBBERY,short,resources/sound/catchTrials/audio_control_human_project02.mp3,60fd35daf1ef7292c0341f17,20,Female,Right handed,2021-07-26_21h59.39.334,MA Experiment 2,2021.1.2,Win32,59.97720866,,,,,,0,19,19,13,1
1.4006,response_2,longFoil,SULPHUR,GOVERNMENT,,,,,,SACRED,GALAXY,short,resources/sound/trials/audio_stim_comp1.mp3,60fd35daf1ef7292c0341f17,20,Female,Right handed,2021-07-26_21h59.39.334,MA Experiment 2,2021.1.2,Win32,59.97720866,0,27,27,7,1,,,,,
1.5963,response_2,longFoil,INCOME,GINGERBREAD,,,,,,RUBBER,PROPERTY,long,resources/sound/trials/audio_stim_human0.mp3,60fd35daf1ef7292c0341f17,20,Female,Right handed,2021-07-26_21h59.39.334,MA Experiment 2,2021.1.2,Win32,59.97720866,0,28,28,29,1,,,,,
1.8303,response_1,longFoil,CHIPMUNK,MONUMENT,,,,,,PAINTER,VEHICLE,long,resources/sound/trials/audio_stim_human47.mp3,60fd35daf1ef7292c0341f17,20,Female,Right handed,2021-07-26_21h59.39.334,MA Experiment 2,2021.1.2,Win32,59.97720866,0,29,29,28,1,,,,,
1.546,response_1,shortValid,LOBSTER,BUTTERFLY,,,,,,DAYLIGHT,MATERIAL,short,resources/sound/trials/audio_stim_human42.mp3,60fd35daf1ef7292c0341f17,20,Female,Right handed,2021-07-26_21h59.39.334,MA Experiment 2,2021.1.2,Win32,59.97720866,0,30,30,9,1,,,,,
1.4302,response_1,,DUEL,NEWSPAPER,,,,,,POISON,REVOLVER,short,resources/sound/catchTrials/audio_control_human_project01.mp3,60fd35daf1ef7292c0341f17,20,Female,Right handed,2021-07-26_21h59.39.334,MA Experiment 2,2021.1.2,Win32,59.97720866,,,,,,0,6,6,9,1
3.3782,response_2,longFoil,SHEEPSKIN,AMBULANCE,,,,,,HARDWARE,OVERCOAT,short,resources/sound/trials/audio_stim_human35.mp3,60fd35daf1ef7292c0341f17,20,Female,Right handed,2021-07-26_21h59.39.334,MA Experiment 2,2021.1.2,Win32,59.97720866,0,31,31,8,1,,,,,
1.9101,response_1,shortValid,SCOOTER,SETTLEMENT,,,,,,WHISTLE,TREASURER,short,resources/sound/trials/audio_stim_comp12.mp3,60fd35daf1ef7292c0341f17,20,Female,Right handed,2021-07-26_21h59.39.334,MA Experiment 2,2021.1.2,Win32,59.97720866,0,32,32,3,1,,,,,
1.0452,response_2,longValid,GRADUATE,CAMERA,,,,,,ATHLETE,IVORY,short,resources/sound/trials/audio_stim_comp57.mp3,60fd35daf1ef7292c0341f17,20,Female,Right handed,2021-07-26_21h59.39.334,MA Experiment 2,2021.1.2,Win32,59.97720866,0,33,33,5,1,,,,,
1.299,response_2,longFoil,NURSERY,STRAWBERRY,,,,,,DRIZZLE,CARDINAL,long,resources/sound/trials/audio_stim_comp69.mp3,60fd35daf1ef7292c0341f17,20,Female,Right handed,2021-07-26_21h59.39.334,MA Experiment 2,2021.1.2,Win32,59.97720866,1,0,34,17,1,,,,,
0.8717,response_2,shortValid,TEMPLE,PHYSICIAN,,,,,,ATHLETE,IVORY,long,resources/sound/trials/audio_stim_comp57.mp3,60fd35daf1ef7292c0341f17,20,Female,Right handed,2021-07-26_21h59.39.334,MA Experiment 2,2021.1.2,Win32,59.97720866,1,1,35,22,1,,,,,
0.8771,response_2,shortFoil,BURNER,HEADQUARTERS,,,,,,RUBBER,PROPERTY,long,resources/sound/trials/audio_stim_human0.mp3,60fd35daf1ef7292c0341f17,20,Female,Right handed,2021-07-26_21h59.39.334,MA Experiment 2,2021.1.2,Win32,59.97720866,1,2,36,29,1,,,,,
1.5594,response_1,,DECOY,DIAMOND,,,,,,VIOLET,LUBRICANT,long,resources/sound/catchTrials/audio_control_comp_project07.mp3,60fd35daf1ef7292c0341f17,20,Female,Right handed,2021-07-26_21h59.39.334,MA Experiment 2,2021.1.2,Win32,59.97720866,,,,,,0,24,24,19,1
2.4623,response_1,longValid,NAPKIN,FACTORY,,,,,,HARDWARE,OVERCOAT,long,resources/sound/trials/audio_stim_human35.mp3,60fd35daf1ef7292c0341f17,20,Female,Right handed,2021-07-26_21h59.39.334,MA Experiment 2,2021.1.2,Win32,59.97720866,1,3,37,25,1,,,,,
1.3436,response_1,longValid,DIAL,INSTITUTE,,,,,,WORKER,VISITOR,short,resources/sound/trials/audio_stim_comp17.mp3,60fd35daf1ef7292c0341f17,20,Female,Right handed,2021-07-26_21h59.39.334,MA Experiment 2,2021.1.2,Win32,59.97720866,1,4,38,6,1,,,,,
1.4597,response_1,shortFoil,HARBOUR,VINEGAR,,,,,,MARBLE,CUSTOMER,short,resources/sound/trials/audio_stim_comp65.mp3,60fd35daf1ef7292c0341f17,20,Female,Right handed,2021-07-26_21h59.39.334,MA Experiment 2,2021.1.2,Win32,59.97720866,1,5,39,4,1,,,,,
1.1769,response_2,longValid,MEDICINE,MOSQUITO,,,,,,MINER,EMERALD,short,resources/sound/trials/audio_stim_comp6.mp3,60fd35daf1ef7292c0341f17,20,Female,Right handed,2021-07-26_21h59.39.334,MA Experiment 2,2021.1.2,Win32,59.97720866,1,6,40,1,1,,,,,
1.0295,response_2,,SODA,NEIGHBOURHOOD,,,,,,SPINACH,APRICOT,short,resources/sound/catchTrials/audio_control_comp_project18.mp3,60fd35daf1ef7292c0341f17,20,Female,Right handed,2021-07-26_21h59.39.334,MA Experiment 2,2021.1.2,Win32,59.97720866,,,,,,0,17,17,5,1
1.0295,response_1,longFoil,TWEEZER,MEDICINE,,,,,,RUBBER,PROPERTY,short,resources/sound/trials/audio_stim_human0.mp3,60fd35daf1ef7292c0341f17,20,Female,Right handed,2021-07-26_21h59.39.334,MA Experiment 2,2021.1.2,Win32,59.97720866,1,7,41,12,1,,,,,
1.2455,response_2,longFoil,HAMMER,ALCOHOL,,,,,,RECEIPT,LIMOUSINE,long,resources/sound/trials/audio_stim_comp40.mp3,60fd35daf1ef7292c0341f17,20,Female,Right handed,2021-07-26_21h59.39.334,MA Experiment 2,2021.1.2,Win32,59.97720866,1,8,42,19,1,,,,,
0.764,response_2,shortValid,EARTHWORM,OPENING,,,,,,DRIZZLE,CARDINAL,short,resources/sound/trials/audio_stim_comp69.mp3,60fd35daf1ef7292c0341f17,20,Female,Right handed,2021-07-26_21h59.39.334,MA Experiment 2,2021.1.2,Win32,59.97720866,1,9,43,0,1,,,,,
1.3623,response_1,longValid,SEGMENT,MESSENGER,,,,,,DAYLIGHT,MATERIAL,long,resources/sound/trials/audio_stim_human42.mp3,60fd35daf1ef7292c0341f17,20,Female,Right handed,2021-07-26_21h59.39.334,MA Experiment 2,2021.1.2,Win32,59.97720866,1,10,44,26,1,,,,,
1.2267,response_2,,NECKLACE,GALLERY,,,,,,NAVY,RECTANGLE,long,resources/sound/catchTrials/audio_control_comp_project06.mp3,60fd35daf1ef7292c0341f17,20,Female,Right handed,2021-07-26_21h59.39.334,MA Experiment 2,2021.1.2,Win32,59.97720866,,,,,,0,9,9,22,1
1.2962,response_1,shortFoil,MUSCLE,RETAILER,,,,,,BRAINSTORM,GREEN NEEDLE,short,resources/sound/trials/audio_stim_original.mp3,60fd35daf1ef7292c0341f17,20,Female,Right handed,2021-07-26_21h59.39.334,MA Experiment 2,2021.1.2,Win32,59.97720866,1,11,45,16,1,,,,,
1.2095,response_2,shortFoil,SINGER,MINERAL,,,,,,SACRED,GALAXY,short,resources/sound/trials/audio_stim_comp1.mp3,60fd35daf1ef7292c0341f17,20,Female,Right handed,2021-07-26_21h59.39.334,MA Experiment 2,2021.1.2,Win32,59.97720866,1,12,46,7,1,,,,,
3.2792,response_1,longValid,GIRDLE,CAPITAL,,,,,,SACRED,GALAXY,long,resources/sound/trials/audio_stim_comp1.mp3,60fd35daf1ef7292c0341f17,20,Female,Right handed,2021-07-26_21h59.39.334,MA Experiment 2,2021.1.2,Win32,59.97720866,1,13,47,24,1,,,,,
3.3264,response_2,longValid,DANCER,HOSPITAL,,,,,,PARTY,SANCTUARY,short,resources/sound/trials/audio_stim_human50.mp3,60fd35daf1ef7292c0341f17,20,Female,Right handed,2021-07-26_21h59.39.334,MA Experiment 2,2021.1.2,Win32,59.97720866,1,14,48,14,1,,,,,
1.6259,response_1,,FEVER,TEMPERATURE,,,,,,JUGGLER,DANDELION,long,resources/sound/catchTrials/audio_control_human_project09.mp3,60fd35daf1ef7292c0341f17,20,Female,Right handed,2021-07-26_21h59.39.334,MA Experiment 2,2021.1.2,Win32,59.97720866,,,,,,0,11,11,31,1
1.0224,response_1,longValid,FOREARM,CINNAMON,,,,,,PAINTER,VEHICLE,long,resources/sound/trials/audio_stim_human47.mp3,60fd35daf1ef7292c0341f17,20,Female,Right handed,2021-07-26_21h59.39.334,MA Experiment 2,2021.1.2,Win32,59.97720866,1,15,49,28,1,,,,,
0.9301,response_1,shortFoil,PICTURE,FISHERMAN,,,,,,ATHLETE,IVORY,short,resources/sound/trials/audio_stim_comp57.mp3,60fd35daf1ef7292c0341f17,20,Female,Right handed,2021-07-26_21h59.39.334,MA Experiment 2,2021.1.2,Win32,59.97720866,1,16,50,5,1,,,,,
1.9597,response_2,shortFoil,DOORWAY,AVENUE,,,,,,ROBBER,RATTLESNAKE,long,resources/sound/trials/audio_stim_human64.mp3,60fd35daf1ef7292c0341f17,20,Female,Right handed,2021-07-26_21h59.39.334,MA Experiment 2,2021.1.2,Win32,59.97720866,1,17,51,32,1,,,,,
1.2764,response_2,shortFoil,MURDER,PROFESSOR,,,,,,MINER,EMERALD,short,resources/sound/trials/audio_stim_human6.mp3,60fd35daf1ef7292c0341f17,20,Female,Right handed,2021-07-26_21h59.39.334,MA Experiment 2,2021.1.2,Win32,59.97720866,1,18,52,13,1,,,,,
0.9929,response_2,,KETTLE,HEROIN,,,,,,HOBBY,COLONY,long,resources/sound/catchTrials/audio_control_comp_project04.mp3,60fd35daf1ef7292c0341f17,20,Female,Right handed,2021-07-26_21h59.39.334,MA Experiment 2,2021.1.2,Win32,59.97720866,,,,,,0,12,12,18,1
2.627,response_1,longFoil,NATIVE,INSTRUCTOR,,,,,,BRAINSTORM,GREEN NEEDLE,long,resources/sound/trials/audio_stim_original.mp3,60fd35daf1ef7292c0341f17,20,Female,Right handed,2021-07-26_21h59.39.334,MA Experiment 2,2021.1.2,Win32,59.97720866,1,19,53,33,1,,,,,
2.2095,response_2,longValid,RABBI,FURNITURE,,,,,,RECEIPT,LIMOUSINE,short,resources/sound/trials/audio_stim_comp40.mp3,60fd35daf1ef7292c0341f17,20,Female,Right handed,2021-07-26_21h59.39.334,MA Experiment 2,2021.1.2,Win32,59.97720866,1,20,54,2,1,,,,,
0.7585,response_2,longFoil,ANCHOR,CABINET,,,,,,WORKER,VISITOR,long,resources/sound/trials/audio_stim_comp17.mp3,60fd35daf1ef7292c0341f17,20,Female,Right handed,2021-07-26_21h59.39.334,MA Experiment 2,2021.1.2,Win32,59.97720866,1,21,55,23,1,,,,,
2.0266,response_2,longValid,HAMSTER,MICROSCOPE,,,,,,MINER,EMERALD,long,resources/sound/trials/audio_stim_comp6.mp3,60fd35daf1ef7292c0341f17,20,Female,Right handed,2021-07-26_21h59.39.334,MA Experiment 2,2021.1.2,Win32,59.97720866,1,22,56,18,1,,,,,
1.33,response_2,,TORTURE,GRASSHOPPER,,,,,,BORDER,ALGEBRA,long,resources/sound/catchTrials/audio_control_comp_project00.mp3,60fd35daf1ef7292c0341f17,20,Female,Right handed,2021-07-26_21h59.39.334,MA Experiment 2,2021.1.2,Win32,59.97720866,,,,,,0,16,16,16,1
1.0105,response_2,longValid,BEETLE,MINISTER,,,,,,ROBBER,RATTLESNAKE,short,resources/sound/trials/audio_stim_human64.mp3,60fd35daf1ef7292c0341f17,20,Female,Right handed,2021-07-26_21h59.39.334,MA Experiment 2,2021.1.2,Win32,59.97720866,1,23,57,15,1,,,,,
1.0113,response_2,shortFoil,OLIVE,ABDOMEN,,,,,,CONCRETE,ENEMY,long,resources/sound/trials/audio_stim_human67.mp3,60fd35daf1ef7292c0341f17,20,Female,Right handed,2021-07-26_21h59.39.334,MA Experiment 2,2021.1.2,Win32,59.97720866,1,24,58,27,1,,,,,
1.2469,response_2,shortValid,PERSON,HANDKERCHIEF,,,,,,HARDWARE,OVERCOAT,short,resources/sound/trials/audio_stim_human35.mp3,60fd35daf1ef7292c0341f17,20,Female,Right handed,2021-07-26_21h59.39.334,MA Experiment 2,2021.1.2,Win32,59.97720866,1,25,59,8,1,,,,,
2.676,response_1,shortFoil,PATIENT,APPLIANCE,,,,,,WHISTLE,TREASURER,long,resources/sound/trials/audio_stim_comp12.mp3,60fd35daf1ef7292c0341f17,20,Female,Right handed,2021-07-26_21h59.39.334,MA Experiment 2,2021.1.2,Win32,59.97720866,1,26,60,20,1,,,,,
0.8962,response_2,,FATHER,PROPELLER,,,,,,BORDER,ALGEBRA,short,resources/sound/catchTrials/audio_control_comp_project00.mp3,60fd35daf1ef7292c0341f17,20,Female,Right handed,2021-07-26_21h59.39.334,MA Experiment 2,2021.1.2,Win32,59.97720866,,,,,,0,0,0,0,1
1.077,response_2,shortFoil,WINDOW,INFECTION,,,,,,CONCRETE,ENEMY,short,resources/sound/trials/audio_stim_human67.mp3,60fd35daf1ef7292c0341f17,20,Female,Right handed,2021-07-26_21h59.39.334,MA Experiment 2,2021.1.2,Win32,59.97720866,1,27,61,10,1,,,,,
0.8896,response_1,shortFoil,SHOULDER,LEMONADE,,,,,,MARBLE,CUSTOMER,long,resources/sound/trials/audio_stim_comp65.mp3,60fd35daf1ef7292c0341f17,20,Female,Right handed,2021-07-26_21h59.39.334,MA Experiment 2,2021.1.2,Win32,59.97720866,1,28,62,21,1,,,,,
0.9764,response_1,shortFoil,PIPING,SAXOPHONE,,,,,,MINER,EMERALD,long,resources/sound/trials/audio_stim_human6.mp3,60fd35daf1ef7292c0341f17,20,Female,Right handed,2021-07-26_21h59.39.334,MA Experiment 2,2021.1.2,Win32,59.97720866,1,29,63,30,1,,,,,
2.793,response_1,longFoil,DIVING,SPECIALIST,,,,,,PARTY,SANCTUARY,long,resources/sound/trials/audio_stim_human50.mp3,60fd35daf1ef7292c0341f17,20,Female,Right handed,2021-07-26_21h59.39.334,MA Experiment 2,2021.1.2,Win32,59.97720866,1,30,64,31,1,,,,,
1.6418,response_2,,SOFA,DISSECTION,,,,,,JOURNAL,ROBBERY,long,resources/sound/catchTrials/audio_control_human_project02.mp3,60fd35daf1ef7292c0341f17,20,Female,Right handed,2021-07-26_21h59.39.334,MA Experiment 2,2021.1.2,Win32,59.97720866,,,,,,0,31,31,29,1
2.8433,response_2,longFoil,STATION,ATTENDANT,,,,,,WHISTLE,TREASURER,short,resources/sound/trials/audio_stim_comp12.mp3,60fd35daf1ef7292c0341f17,20,Female,Right handed,2021-07-26_21h59.39.334,MA Experiment 2,2021.1.2,Win32,59.97720866,1,31,65,3,1,,,,,
1.2105,response_1,longValid,CRYSTAL,MECHANIC,,,,,,DAYLIGHT,MATERIAL,short,resources/sound/trials/audio_stim_human42.mp3,60fd35daf1ef7292c0341f17,20,Female,Right handed,2021-07-26_21h59.39.334,MA Experiment 2,2021.1.2,Win32,59.97720866,1,32,66,9,1,,,,,
2.4797,response_2,longValid,FERTILE,CHOCOLATE,,,,,,PAINTER,VEHICLE,short,resources/sound/trials/audio_stim_human47.mp3,60fd35daf1ef7292c0341f17,20,Female,Right handed,2021-07-26_21h59.39.334,MA Experiment 2,2021.1.2,Win32,59.97720866,1,33,67,11,1,,,,,
1.6793,response_2,shortFoil,LIQUID,GORILLA,,,,,,DRIZZLE,CARDINAL,short,resources/sound/trials/audio_stim_comp69.mp3,60fd35daf1ef7292c0341f17,20,Female,Right handed,2021-07-26_21h59.39.334,MA Experiment 2,2021.1.2,Win32,59.97720866,2,0,68,0,1,,,,,
0.9267,response_2,shortFoil,CEREAL,STRAWBERRY,,,,,,RECEIPT,LIMOUSINE,long,resources/sound/trials/audio_stim_comp40.mp3,60fd35daf1ef7292c0341f17,20,Female,Right handed,2021-07-26_21h59.39.334,MA Experiment 2,2021.1.2,Win32,59.97720866,2,1,69,19,1,,,,,
2.8133,response_2,longFoil,WRITING,CHOCOLATE,,,,,,MINER,EMERALD,short,resources/sound/trials/audio_stim_comp6.mp3,60fd35daf1ef7292c0341f17,20,Female,Right handed,2021-07-26_21h59.39.334,MA Experiment 2,2021.1.2,Win32,59.97720866,2,2,70,1,1,,,,,
1.0928,response_2,,SADDLE,BUTTERFLY,,,,,,IRIS,VIOLIN,long,resources/sound/catchTrials/audio_control_human_project12.mp3,60fd35daf1ef7292c0341f17,20,Female,Right handed,2021-07-26_21h59.39.334,MA Experiment 2,2021.1.2,Win32,59.97720866,,,,,,0,10,10,24,1
0.8965,response_2,shortValid,LEADER,TEMPERATURE,,,,,,MARBLE,CUSTOMER,short,resources/sound/trials/audio_stim_comp65.mp3,60fd35daf1ef7292c0341f17,20,Female,Right handed,2021-07-26_21h59.39.334,MA Experiment 2,2021.1.2,Win32,59.97720866,2,3,71,4,1,,,,,
2.1598,response_1,longFoil,OFFICE,ENAMEL,,,,,,PARTY,SANCTUARY,short,resources/sound/trials/audio_stim_human50.mp3,60fd35daf1ef7292c0341f17,20,Female,Right handed,2021-07-26_21h59.39.334,MA Experiment 2,2021.1.2,Win32,59.97720866,2,4,72,14,1,,,,,
2.244,response_1,shortFoil,NEIGHBOUR,LEMONADE,,,,,,BRAINSTORM,GREEN NEEDLE,long,resources/sound/trials/audio_stim_original.mp3,60fd35daf1ef7292c0341f17,20,Female,Right handed,2021-07-26_21h59.39.334,MA Experiment 2,2021.1.2,Win32,59.97720866,2,5,73,33,1,,,,,
1.3965,response_2,shortValid,STATION,PROFESSOR,,,,,,RUBBER,PROPERTY,short,resources/sound/trials/audio_stim_human0.mp3,60fd35daf1ef7292c0341f17,20,Female,Right handed,2021-07-26_21h59.39.334,MA Experiment 2,2021.1.2,Win32,59.97720866,2,6,74,12,1,,,,,
1.0933,response_2,,CABIN,ADMIRAL,,,,,,HOBBY,COLONY,short,resources/sound/catchTrials/audio_control_human_project04.mp3,60fd35daf1ef7292c0341f17,20,Female,Right handed,2021-07-26_21h59.39.334,MA Experiment 2,2021.1.2,Win32,59.97720866,,,,,,0,15,15,11,1
1.0605,response_1,longValid,GRADUATE,FISHERMAN,,,,,,WORKER,VISITOR,long,resources/sound/trials/audio_stim_comp17.mp3,60fd35daf1ef7292c0341f17,20,Female,Right handed,2021-07-26_21h59.39.334,MA Experiment 2,2021.1.2,Win32,59.97720866,2,7,75,23,1,,,,,
1.5632,response_1,longValid,ANCHOR,GRASSHOPPER,,,,,,ATHLETE,IVORY,long,resources/sound/trials/audio_stim_comp57.mp3,60fd35daf1ef7292c0341f17,20,Female,Right handed,2021-07-26_21h59.39.334,MA Experiment 2,2021.1.2,Win32,59.97720866,2,8,76,22,1,,,,,
2.0256,response_1,longFoil,SCOOTER,INFECTION,,,,,,DAYLIGHT,MATERIAL,short,resources/sound/trials/audio_stim_human42.mp3,60fd35daf1ef7292c0341f17,20,Female,Right handed,2021-07-26_21h59.39.334,MA Experiment 2,2021.1.2,Win32,59.97720866,2,9,77,9,1,,,,,
1.5417,response_1,longFoil,DANCER,AVENUE,,,,,,BRAINSTORM,GREEN NEEDLE,short,resources/sound/trials/audio_stim_original.mp3,60fd35daf1ef7292c0341f17,20,Female,Right handed,2021-07-26_21h59.39.334,MA Experiment 2,2021.1.2,Win32,59.97720866,2,10,78,16,1,,,,,
1.9437,response_1,,RABBI,ATTENDANT,,,,,,JUGGLER,DANDELION,short,resources/sound/catchTrials/audio_control_human_project09.mp3,60fd35daf1ef7292c0341f17,20,Female,Right handed,2021-07-26_21h59.39.334,MA Experiment 2,2021.1.2,Win32,59.97720866,,,,,,0,13,13,15,1
1.0596,response_2,shortValid,BEETLE,COMMITTEE,,,,,,RUBBER,PROPERTY,long,resources/sound/trials/audio_stim_human0.mp3,60fd35daf1ef7292c0341f17,20,Female,Right handed,2021-07-26_21h59.39.334,MA Experiment 2,2021.1.2,Win32,59.97720866,2,11,79,29,1,,,,,
1.7794,response_1,shortFoil,CHIPMUNK,CATHEDRAL,,,,,,PAINTER,VEHICLE,short,resources/sound/trials/audio_stim_human47.mp3,60fd35daf1ef7292c0341f17,20,Female,Right handed,2021-07-26_21h59.39.334,MA Experiment 2,2021.1.2,Win32,59.97720866,2,12,80,11,1,,,,,
2.4769,response_2,longFoil,POLO,ORNAMENT,,,,,,MINER,EMERALD,short,resources/sound/trials/audio_stim_human6.mp3,60fd35daf1ef7292c0341f17,20,Female,Right handed,2021-07-26_21h59.39.334,MA Experiment 2,2021.1.2,Win32,59.97720866,2,13,81,13,1,,,,,
2.3436,response_1,shortValid,MUSCLE,PHOTOGRAPH,,,,,,DRIZZLE,CARDINAL,long,resources/sound/trials/audio_stim_comp69.mp3,60fd35daf1ef7292c0341f17,20,Female,Right handed,2021-07-26_21h59.39.334,MA Experiment 2,2021.1.2,Win32,59.97720866,2,14,82,17,1,,,,,
0.8636,response_2,,INCOME,CITIZEN,,,,,,IRIS,VIOLIN,short,resources/sound/catchTrials/audio_control_human_project12.mp3,60fd35daf1ef7292c0341f17,20,Female,Right handed,2021-07-26_21h59.39.334,MA Experiment 2,2021.1.2,Win32,59.97720866,,,,,,0,1,1,8,1
1.1939,response_2,shortValid,FATHER,CLARINET,,,,,,ATHLETE,IVORY,short,resources/sound/trials/audio_stim_comp57.mp3,60fd35daf1ef7292c0341f17,20,Female,Right handed,2021-07-26_21h59.39.334,MA Experiment 2,2021.1.2,Win32,59.97720866,2,15,83,5,1,,,,,
,,shortFoil,KETTLE,INJURY,,,,,,WHISTLE,TREASURER,short,resources/sound/trials/audio_stim_comp12.mp3,60fd35daf1ef7292c0341f17,20,Female,Right handed,2021-07-26_21h59.39.334,MA Experiment 2,2021.1.2,Win32,59.97720866,2,16,84,3,1,,,,,
2.5946,response_4,longValid,TWEEZER,MERCURY,,,,,,SACRED,GALAXY,short,resources/sound/trials/audio_stim_comp1.mp3,60fd35daf1ef7292c0341f17,20,Female,Right handed,2021-07-26_21h59.39.334,MA Experiment 2,2021.1.2,Win32,59.97720866,2,17,85,7,1,,,,,
2.5099,response_1,longValid,TUMBLE,APPLIANCE,,,,,,WHISTLE,TREASURER,long,resources/sound/trials/audio_stim_comp12.mp3,60fd35daf1ef7292c0341f17,20,Female,Right handed,2021-07-26_21h59.39.334,MA Experiment 2,2021.1.2,Win32,59.97720866,2,18,86,20,1,,,,,
2.8639,response_1,,UNCLE,CORRIDOR,,,,,,POISON,REVOLVER,long,resources/sound/catchTrials/audio_control_human_project01.mp3,60fd35daf1ef7292c0341f17,20,Female,Right handed,2021-07-26_21h59.39.334,MA Experiment 2,2021.1.2,Win32,59.97720866,,,,,,0,8,8,25,1
1.1438,response_2,longFoil,LIGHTNING,ALCOHOL,,,,,,WORKER,VISITOR,short,resources/sound/trials/audio_stim_comp17.mp3,60fd35daf1ef7292c0341f17,20,Female,Right handed,2021-07-26_21h59.39.334,MA Experiment 2,2021.1.2,Win32,59.97720866,2,19,87,6,1,,,,,
2.1802,response_1,longValid,DIVING,HONEYMOON,,,,,,MINER,EMERALD,long,resources/sound/trials/audio_stim_human6.mp3,60fd35daf1ef7292c0341f17,20,Female,Right handed,2021-07-26_21h59.39.334,MA Experiment 2,2021.1.2,Win32,59.97720866,2,20,88,30,1,,,,,
2.678,response_2,shortValid,FEVER,PROJECTOR,,,,,,RECEIPT,LIMOUSINE,short,resources/sound/trials/audio_stim_comp40.mp3,60fd35daf1ef7292c0341f17,20,Female,Right handed,2021-07-26_21h59.39.334,MA Experiment 2,2021.1.2,Win32,59.97720866,2,21,89,2,1,,,,,
2.375,response_1,shortFoil,KENNEL,CAMERA,,,,,,PARTY,SANCTUARY,long,resources/sound/trials/audio_stim_human50.mp3,60fd35daf1ef7292c0341f17,20,Female,Right handed,2021-07-26_21h59.39.334,MA Experiment 2,2021.1.2,Win32,59.97720866,2,22,90,31,1,,,,,
1.3932,response_2,,PERSON,MICROSCOPE,,,,,,IRIS,VIOLIN,long,resources/sound/catchTrials/audio_control_comp_project12.mp3,60fd35daf1ef7292c0341f17,20,Female,Right handed,2021-07-26_21h59.39.334,MA Experiment 2,2021.1.2,Win32,59.97720866,,,,,,0,3,3,20,1
1.1214,response_1,shortFoil,DIAL,TANGERINE,,,,,,MINER,EMERALD,long,resources/sound/trials/audio_stim_comp6.mp3,60fd35daf1ef7292c0341f17,20,Female,Right handed,2021-07-26_21h59.39.334,MA Experiment 2,2021.1.2,Win32,59.97720866,2,23,91,18,1,,,,,
0.8272,response_2,shortValid,DOORWAY,MOLECULE,,,,,,CONCRETE,ENEMY,short,resources/sound/trials/audio_stim_human67.mp3,60fd35daf1ef7292c0341f17,20,Female,Right handed,2021-07-26_21h59.39.334,MA Experiment 2,2021.1.2,Win32,59.97720866,2,24,92,10,1,,,,,
1.4434,response_2,shortValid,SOFA,INSTITUTE,,,,,,ROBBER,RATTLESNAKE,long,resources/sound/trials/audio_stim_human64.mp3,60fd35daf1ef7292c0341f17,20,Female,Right handed,2021-07-26_21h59.39.334,MA Experiment 2,2021.1.2,Win32,59.97720866,2,25,93,32,1,,,,,
1.2623,response_2,shortValid,BERRY,EMULSION,,,,,,ROBBER,RATTLESNAKE,short,resources/sound/trials/audio_stim_human64.mp3,60fd35daf1ef7292c0341f17,20,Female,Right handed,2021-07-26_21h59.39.334,MA Experiment 2,2021.1.2,Win32,59.97720866,2,26,94,15,1,,,,,
1.2766,response_1,,HARBOUR,SETTLEMENT,,,,,,VIOLET,LUBRICANT,short,resources/sound/catchTrials/audio_control_human_project07.mp3,60fd35daf1ef7292c0341f17,20,Female,Right handed,2021-07-26_21h59.39.334,MA Experiment 2,2021.1.2,Win32,59.97720866,,,,,,0,5,5,12,1
1.4442,response_1,shortFoil,MISTRESS,ACROBAT,,,,,,DAYLIGHT,MATERIAL,long,resources/sound/trials/audio_stim_human42.mp3,60fd35daf1ef7292c0341f17,20,Female,Right handed,2021-07-26_21h59.39.334,MA Experiment 2,2021.1.2,Win32,59.97720866,2,27,95,26,1,,,,,
2.4443,response_2,shortValid,EVENING,OPENING,,,,,,SACRED,GALAXY,long,resources/sound/trials/audio_stim_comp1.mp3,60fd35daf1ef7292c0341f17,20,Female,Right handed,2021-07-26_21h59.39.334,MA Experiment 2,2021.1.2,Win32,59.97720866,2,28,96,24,1,,,,,
1.7839,response_1,shortFoil,OLIVE,AMBULANCE,,,,,,PAINTER,VEHICLE,long,resources/sound/trials/audio_stim_human47.mp3,60fd35daf1ef7292c0341f17,20,Female,Right handed,2021-07-26_21h59.39.334,MA Experiment 2,2021.1.2,Win32,59.97720866,2,29,97,28,1,,,,,
1.8429,response_2,shortFoil,INVOICE,CONVENTION,,,,,,HARDWARE,OVERCOAT,short,resources/sound/trials/audio_stim_human35.mp3,60fd35daf1ef7292c0341f17,20,Female,Right handed,2021-07-26_21h59.39.334,MA Experiment 2,2021.1.2,Win32,59.97720866,2,30,98,8,1,,,,,
1.1628,response_2,,NOVEL,MINISTER,,,,,,NAVY,RECTANGLE,long,resources/sound/catchTrials/audio_control_human_project06.mp3,60fd35daf1ef7292c0341f17,20,Female,Right handed,2021-07-26_21h59.39.334,MA Experiment 2,2021.1.2,Win32,59.97720866,,,,,,0,25,25,30,1
1.4768,response_2,shortValid,STOCKING,GOVERNMENT,,,,,,CONCRETE,ENEMY,long,resources/sound/trials/audio_stim_human67.mp3,60fd35daf1ef7292c0341f17,20,Female,Right handed,2021-07-26_21h59.39.334,MA Experiment 2,2021.1.2,Win32,59.97720866,2,31,99,27,1,,,,,
1.0768,response_1,longValid,MOONLIGHT,MONUMENT,,,,,,MARBLE,CUSTOMER,long,resources/sound/trials/audio_stim_comp65.mp3,60fd35daf1ef7292c0341f17,20,Female,Right handed,2021-07-26_21h59.39.334,MA Experiment 2,2021.1.2,Win32,59.97720866,2,32,100,21,1,,,,,
1.8946,response_2,shortValid,SINGER,SAXOPHONE,,,,,,HARDWARE,OVERCOAT,long,resources/sound/trials/audio_stim_human35.mp3,60fd35daf1ef7292c0341f17,20,Female,Right handed,2021-07-26_21h59.39.334,MA Experiment 2,2021.1.2,Win32,59.97720866,2,33,101,25,1,,,,,
1.2935,response_1,longFoil,TRAITOR,INSTRUCTOR,,,,,,ATHLETE,IVORY,short,resources/sound/trials/audio_stim_comp57.mp3,60fd35daf1ef7292c0341f17,20,Female,Right handed,2021-07-26_21h59.39.334,MA Experiment 2,2021.1.2,Win32,59.97720866,3,0,102,5,1,,,,,
0.9916,response_2,longValid,EARTHWORM,OXYGEN,,,,,,CONCRETE,ENEMY,long,resources/sound/trials/audio_stim_human67.mp3,60fd35daf1ef7292c0341f17,20,Female,Right handed,2021-07-26_21h59.39.334,MA Experiment 2,2021.1.2,Win32,59.97720866,3,1,103,27,1,,,,,
1.2766,response_2,longValid,FERTILE,CARNATION,,,,,,RUBBER,PROPERTY,long,resources/sound/trials/audio_stim_human0.mp3,60fd35daf1ef7292c0341f17,20,Female,Right handed,2021-07-26_21h59.39.334,MA Experiment 2,2021.1.2,Win32,59.97720866,3,2,104,29,1,,,,,
1.2108,response_2,,NURSERY,GYMNASTICS,,,,,,NAVY,RECTANGLE,short,resources/sound/catchTrials/audio_control_human_project06.mp3,60fd35daf1ef7292c0341f17,20,Female,Right handed,2021-07-26_21h59.39.334,MA Experiment 2,2021.1.2,Win32,59.97720866,,,,,,0,28,28,14,1
1.0783,response_2,shortFoil,SHOULDER,HOSPITAL,,,,,,RUBBER,PROPERTY,short,resources/sound/trials/audio_stim_human0.mp3,60fd35daf1ef7292c0341f17,20,Female,Right handed,2021-07-26_21h59.39.334,MA Experiment 2,2021.1.2,Win32,59.97720866,3,3,105,12,1,,,,,
1.424,response_1,longFoil,VILLAGE,HEADQUARTERS,,,,,,MARBLE,CUSTOMER,short,resources/sound/trials/audio_stim_comp65.mp3,60fd35daf1ef7292c0341f17,20,Female,Right handed,2021-07-26_21h59.39.334,MA Experiment 2,2021.1.2,Win32,59.97720866,3,4,106,4,1,,,,,
2.3293,response_2,shortValid,HAMSTER,AMMONIA,,,,,,PAINTER,VEHICLE,long,resources/sound/trials/audio_stim_human47.mp3,60fd35daf1ef7292c0341f17,20,Female,Right handed,2021-07-26_21h59.39.334,MA Experiment 2,2021.1.2,Win32,59.97720866,3,5,107,28,1,,,,,
2.5302,response_1,longFoil,WINDOW,VINEGAR,,,,,,WHISTLE,TREASURER,long,resources/sound/trials/audio_stim_comp12.mp3,60fd35daf1ef7292c0341f17,20,Female,Right handed,2021-07-26_21h59.39.334,MA Experiment 2,2021.1.2,Win32,59.97720866,3,6,108,20,1,,,,,
1.4294,response_2,,CAPTAIN,ABDOMEN,,,,,,CORNER,ENGINEER,short,resources/sound/catchTrials/audio_control_human_project14.mp3,60fd35daf1ef7292c0341f17,20,Female,Right handed,2021-07-26_21h59.39.334,MA Experiment 2,2021.1.2,Win32,59.97720866,,,,,,0,27,27,10,1
1.1099,response_1,longValid,JURY,NEIGHBOURHOOD,,,,,,BRAINSTORM,GREEN NEEDLE,long,resources/sound/trials/audio_stim_original.mp3,60fd35daf1ef7292c0341f17,20,Female,Right handed,2021-07-26_21h59.39.334,MA Experiment 2,2021.1.2,Win32,59.97720866,3,7,109,33,1,,,,,
3.2438,response_2,shortFoil,FAIRY,FAMILY,,,,,,PARTY,SANCTUARY,short,resources/sound/trials/audio_stim_human50.mp3,60fd35daf1ef7292c0341f17,20,Female,Right handed,2021-07-26_21h59.39.334,MA Experiment 2,2021.1.2,Win32,59.97720866,3,8,110,14,1,,,,,
1.1603,response_1,longValid,DUEL,MINERAL,,,,,,MINER,EMERALD,short,resources/sound/trials/audio_stim_human6.mp3,60fd35daf1ef7292c0341f17,20,Female,Right handed,2021-07-26_21h59.39.334,MA Experiment 2,2021.1.2,Win32,59.97720866,3,9,111,13,1,,,,,
3.2783,response_2,longValid,FOREARM,REFEREE,,,,,,WHISTLE,TREASURER,short,resources/sound/trials/audio_stim_comp12.mp3,60fd35daf1ef7292c0341f17,20,Female,Right handed,2021-07-26_21h59.39.334,MA Experiment 2,2021.1.2,Win32,59.97720866,3,10,112,3,1,,,,,
1.6939,response_2,,WAFER,UMBRELLA,,,,,,ICY,JITTERBUG,short,resources/sound/catchTrials/audio_control_comp_project08.mp3,60fd35daf1ef7292c0341f17,20,Female,Right handed,2021-07-26_21h59.39.334,MA Experiment 2,2021.1.2,Win32,59.97720866,,,,,,0,23,23,7,1
1.2937,response_1,longValid,PRINCESS,DISSECTION,,,,,,HARDWARE,OVERCOAT,short,resources/sound/trials/audio_stim_human35.mp3,60fd35daf1ef7292c0341f17,20,Female,Right handed,2021-07-26_21h59.39.334,MA Experiment 2,2021.1.2,Win32,59.97720866,3,11,113,8,1,,,,,
1.7477,response_2,longValid,BISHOP,DIAMOND,,,,,,ROBBER,RATTLESNAKE,long,resources/sound/trials/audio_stim_human64.mp3,60fd35daf1ef7292c0341f17,20,Female,Right handed,2021-07-26_21h59.39.334,MA Experiment 2,2021.1.2,Win32,59.97720866,3,12,114,32,1,,,,,
1.8774,response_2,longFoil,HURDLE,SPECIALIST,,,,,,DRIZZLE,CARDINAL,short,resources/sound/trials/audio_stim_comp69.mp3,60fd35daf1ef7292c0341f17,20,Female,Right handed,2021-07-26_21h59.39.334,MA Experiment 2,2021.1.2,Win32,59.97720866,3,13,115,0,1,,,,,
1.4602,response_2,shortValid,PIPING,MEDICINE,,,,,,WORKER,VISITOR,short,resources/sound/trials/audio_stim_comp17.mp3,60fd35daf1ef7292c0341f17,20,Female,Right handed,2021-07-26_21h59.39.334,MA Experiment 2,2021.1.2,Win32,59.97720866,3,14,116,6,1,,,,,
1.3939,response_2,,MURDER,MOSQUITO,,,,,,NAVY,RECTANGLE,short,resources/sound/catchTrials/audio_control_comp_project06.mp3,60fd35daf1ef7292c0341f17,20,Female,Right handed,2021-07-26_21h59.39.334,MA Experiment 2,2021.1.2,Win32,59.97720866,,,,,,0,18,18,6,1
1.311,response_1,shortFoil,GIRDLE,ICICLE,,,,,,DAYLIGHT,MATERIAL,short,resources/sound/trials/audio_stim_human42.mp3,60fd35daf1ef7292c0341f17,20,Female,Right handed,2021-07-26_21h59.39.334,MA Experiment 2,2021.1.2,Win32,59.97720866,3,15,117,9,1,,,,,
0.8457,response_1,longFoil,SODA,GORILLA,,,,,,DAYLIGHT,MATERIAL,long,resources/sound/trials/audio_stim_human42.mp3,60fd35daf1ef7292c0341f17,20,Female,Right handed,2021-07-26_21h59.39.334,MA Experiment 2,2021.1.2,Win32,59.97720866,3,16,118,26,1,,,,,
1.1776,response_1,longFoil,ACRE,NEWSPAPER,,,,,,ATHLETE,IVORY,long,resources/sound/trials/audio_stim_comp57.mp3,60fd35daf1ef7292c0341f17,20,Female,Right handed,2021-07-26_21h59.39.334,MA Experiment 2,2021.1.2,Win32,59.97720866,3,17,119,22,1,,,,,
2.5778,response_2,longFoil,TORTURE,INDUSTRY,,,,,,PAINTER,VEHICLE,short,resources/sound/trials/audio_stim_human47.mp3,60fd35daf1ef7292c0341f17,20,Female,Right handed,2021-07-26_21h59.39.334,MA Experiment 2,2021.1.2,Win32,59.97720866,3,18,120,11,1,,,,,
1.3738,response_1,,CIGAR,INSTRUMENT,,,,,,VIOLET,LUBRICANT,short,resources/sound/catchTrials/audio_control_comp_project07.mp3,60fd35daf1ef7292c0341f17,20,Female,Right handed,2021-07-26_21h59.39.334,MA Experiment 2,2021.1.2,Win32,59.97720866,,,,,,0,4,4,3,1
2.2605,response_2,shortValid,VAPOUR,JANITOR,,,,,,RECEIPT,LIMOUSINE,long,resources/sound/trials/audio_stim_comp40.mp3,60fd35daf1ef7292c0341f17,20,Female,Right handed,2021-07-26_21h59.39.334,MA Experiment 2,2021.1.2,Win32,59.97720866,3,19,121,19,1,,,,,
1.1779,response_2,longValid,PIANO,GINGERBREAD,,,,,,DRIZZLE,CARDINAL,long,resources/sound/trials/audio_stim_comp69.mp3,60fd35daf1ef7292c0341f17,20,Female,Right handed,2021-07-26_21h59.39.334,MA Experiment 2,2021.1.2,Win32,59.97720866,3,20,122,17,1,,,,,
1.7104,response_1,longValid,SHEEPSKIN,BEVERAGE,,,,,,CONCRETE,ENEMY,short,resources/sound/trials/audio_stim_human67.mp3,60fd35daf1ef7292c0341f17,20,Female,Right handed,2021-07-26_21h59.39.334,MA Experiment 2,2021.1.2,Win32,59.97720866,3,21,123,10,1,,,,,
1.7764,response_2,shortValid,DECOY,CANDLELIGHT,,,,,,MINER,EMERALD,long,resources/sound/trials/audio_stim_comp6.mp3,60fd35daf1ef7292c0341f17,20,Female,Right handed,2021-07-26_21h59.39.334,MA Experiment 2,2021.1.2,Win32,59.97720866,3,22,124,18,1,,,,,
2.0597,response_2,,SEGMENT,FACTORY,,,,,,CORNER,ENGINEER,short,resources/sound/catchTrials/audio_control_comp_project14.mp3,60fd35daf1ef7292c0341f17,20,Female,Right handed,2021-07-26_21h59.39.334,MA Experiment 2,2021.1.2,Win32,59.97720866,,,,,,0,14,14,1,1
3.3774,response_2,longFoil,VESSEL,CAPITAL,,,,,,HARDWARE,OVERCOAT,long,resources/sound/trials/audio_stim_human35.mp3,60fd35daf1ef7292c0341f17,20,Female,Right handed,2021-07-26_21h59.39.334,MA Experiment 2,2021.1.2,Win32,59.97720866,3,23,125,25,1,,,,,
3.0942,response_1,longValid,BURNER,HANDKERCHIEF,,,,,,PARTY,SANCTUARY,long,resources/sound/trials/audio_stim_human50.mp3,60fd35daf1ef7292c0341f17,20,Female,Right handed,2021-07-26_21h59.39.334,MA Experiment 2,2021.1.2,Win32,59.97720866,3,24,126,31,1,,,,,
1.1932,response_2,longFoil,WIRE,FIREWOOD,,,,,,SACRED,GALAXY,long,resources/sound/trials/audio_stim_comp1.mp3,60fd35daf1ef7292c0341f17,20,Female,Right handed,2021-07-26_21h59.39.334,MA Experiment 2,2021.1.2,Win32,59.97720866,3,25,127,24,1,,,,,
1.1402,response_1,longValid,PATIENT,CINNAMON,,,,,,BRAINSTORM,GREEN NEEDLE,short,resources/sound/trials/audio_stim_original.mp3,60fd35daf1ef7292c0341f17,20,Female,Right handed,2021-07-26_21h59.39.334,MA Experiment 2,2021.1.2,Win32,59.97720866,3,26,128,16,1,,,,,
1.2611,response_2,,MURAL,MECHANIC,,,,,,CORNER,ENGINEER,long,resources/sound/catchTrials/audio_control_human_project14.mp3,60fd35daf1ef7292c0341f17,20,Female,Right handed,2021-07-26_21h59.39.334,MA Experiment 2,2021.1.2,Win32,59.97720866,,,,,,0,26,26,26,1
1.4101,response_1,shortFoil,LOBSTER,CROCODILE,,,,,,WORKER,VISITOR,long,resources/sound/trials/audio_stim_comp17.mp3,60fd35daf1ef7292c0341f17,20,Female,Right handed,2021-07-26_21h59.39.334,MA Experiment 2,2021.1.2,Win32,59.97720866,3,27,129,23,1,,,,,
1.4114,response_2,shortFoil,TEMPLE,HURRICANE,,,,,,MINER,EMERALD,short,resources/sound/trials/audio_stim_comp6.mp3,60fd35daf1ef7292c0341f17,20,Female,Right handed,2021-07-26_21h59.39.334,MA Experiment 2,2021.1.2,Win32,59.97720866,3,28,130,1,1,,,,,
1.8269,response_2,shortFoil,MORNING,PHYSICIAN,,,,,,ROBBER,RATTLESNAKE,short,resources/sound/trials/audio_stim_human64.mp3,60fd35daf1ef7292c0341f17,20,Female,Right handed,2021-07-26_21h59.39.334,MA Experiment 2,2021.1.2,Win32,59.97720866,3,29,131,15,1,,,,,
2.4733,response_2,shortFoil,MEASLES,ASBESTOS,,,,,,RECEIPT,LIMOUSINE,short,resources/sound/trials/audio_stim_comp40.mp3,60fd35daf1ef7292c0341f17,20,Female,Right handed,2021-07-26_21h59.39.334,MA Experiment 2,2021.1.2,Win32,59.97720866,3,30,132,2,1,,,,,
1.3111,response_2,,VALLEY,HEROIN,,,,,,IRIS,VIOLIN,short,resources/sound/catchTrials/audio_control_comp_project12.mp3,60fd35daf1ef7292c0341f17,20,Female,Right handed,2021-07-26_21h59.39.334,MA Experiment 2,2021.1.2,Win32,59.97720866,,,,,,0,2,2,4,1
2.2645,response_1,longFoil,SULPHUR,CABINET,,,,,,MINER,EMERALD,long,resources/sound/trials/audio_stim_human6.mp3,60fd35daf1ef7292c0341f17,20,Female,Right handed,2021-07-26_21h59.39.334,MA Experiment 2,2021.1.2,Win32,59.97720866,3,31,133,30,1,,,,,
2.3265,response_2,shortValid,KERNEL,ENVELOPE,,,,,,SACRED,GALAXY,short,resources/sound/trials/audio_stim_comp1.mp3,60fd35daf1ef7292c0341f17,20,Female,Right handed,2021-07-26_21h59.39.334,MA Experiment 2,2021.1.2,Win32,59.97720866,3,32,134,7,1,,,,,
1.8096,response_1,longFoil,NATIVE,ANTIQUE,,,,,,MARBLE,CUSTOMER,long,resources/sound/trials/audio_stim_comp65.mp3,60fd35daf1ef7292c0341f17,20,Female,Right handed,2021-07-26_21h59.39.334,MA Experiment 2,2021.1.2,Win32,59.97720866,3,33,135,21,1,,,,,
