response.time,response,cueTarget,rand_foil_1,rand_foil_2,prac_trials.thisRepN,prac_trials.thisTrialN,prac_trials.thisN,prac_trials.thisIndex,prac_trials.ran,word_1,word_2,cue,file_path,participant,age,gender,handedness,date,expName,psychopyVersion,OS,frameRate,trials.thisRepN,trials.thisTrialN,trials.thisN,trials.thisIndex,trials.ran,catchTrials.thisRepN,catchTrials.thisTrialN,catchTrials.thisN,catchTrials.thisIndex,catchTrials.ran
2.3315,response_2,longValid,POLO,CARNATION,0,0,0,6,1,VACANT,SALVATION,long,resources/sound/prac_trials/practice_cue6.mp3,60fdb5f42a9cde17ef4958f2,18,Female,Right handed,2021-07-26_14h36.44.102,MA Experiment 2,2021.1.2,Win32,59.95922773,,,,,,,,,,
2.5012,response_1,longFoil,GRADUATE,AMMONIA,0,1,1,8,1,DAGGER,EMPHASIS,long,resources/sound/prac_trials/practice_cue8.mp3,60fdb5f42a9cde17ef4958f2,18,Female,Right handed,2021-07-26_14h36.44.102,MA Experiment 2,2021.1.2,Win32,59.95922773,,,,,,,,,,
1.815,response_2,shortValid,CABIN,PROFESSOR,0,2,2,11,1,KETCHUP,GONDOLA,long,resources/sound/prac_trials/practice_cue_human11.mp3,60fdb5f42a9cde17ef4958f2,18,Female,Right handed,2021-07-26_14h36.44.102,MA Experiment 2,2021.1.2,Win32,59.95922773,,,,,,,,,,
1.0979,response_2,longValid,SOFA,MOLECULE,0,3,3,5,1,NONSENSE,OASIS,short,resources/sound/prac_trials/practice_cue_human5.mp3,60fdb5f42a9cde17ef4958f2,18,Female,Right handed,2021-07-26_14h36.44.102,MA Experiment 2,2021.1.2,Win32,59.95922773,,,,,,,,,,
3.4147,response_2,shortFoil,WAFER,STRAWBERRY,0,4,4,2,1,RECENT,TOBACCO,short,resources/sound/prac_trials/practice_cue2.mp3,60fdb5f42a9cde17ef4958f2,18,Female,Right handed,2021-07-26_14h36.44.102,MA Experiment 2,2021.1.2,Win32,59.95922773,,,,,,,,,,
2.1474,response_2,longFoil,BEETLE,ENAMEL,0,5,5,7,1,BUCKLE,WALLABY,long,resources/sound/prac_trials/practice_cue_human7.mp3,60fdb5f42a9cde17ef4958f2,18,Female,Right handed,2021-07-26_14h36.44.102,MA Experiment 2,2021.1.2,Win32,59.95922773,,,,,,,,,,
1.3515,response_1,shortFoil,TUMBLE,PROPELLER,0,6,6,0,1,AARDVARK,FALLACY,short,resources/sound/prac_trials/practice_cue0.mp3,60fdb5f42a9cde17ef4958f2,18,Female,Right handed,2021-07-26_14h36.44.102,MA Experiment 2,2021.1.2,Win32,59.95922773,,,,,,,,,,
1.2315,response_2,longValid,WINDOW,FACTORY,0,7,7,3,1,EAGER,QUALIFY,short,resources/sound/prac_trials/practice_cue_human3.mp3,60fdb5f42a9cde17ef4958f2,18,Female,Right handed,2021-07-26_14h36.44.102,MA Experiment 2,2021.1.2,Win32,59.95922773,,,,,,,,,,
3.0478,response_2,longFoil,HARBOUR,INSTRUMENT,0,8,8,1,1,CABLE,REPUBLIC,short,resources/sound/prac_trials/practice_cue_human1.mp3,60fdb5f42a9cde17ef4958f2,18,Female,Right handed,2021-07-26_14h36.44.102,MA Experiment 2,2021.1.2,Win32,59.95922773,,,,,,,,,,
1.2946,response_2,shortFoil,JURY,FAMILY,0,9,9,4,1,FIZZY,ELECTRIC,short,resources/sound/prac_trials/practice_cue4.mp3,60fdb5f42a9cde17ef4958f2,18,Female,Right handed,2021-07-26_14h36.44.102,MA Experiment 2,2021.1.2,Win32,59.95922773,,,,,,,,,,
1.5473,response_1,longValid,LOBSTER,CAPITAL,0,10,10,10,1,SAFFRON,JAVELIN,long,resources/sound/prac_trials/practice_cue10.mp3,60fdb5f42a9cde17ef4958f2,18,Female,Right handed,2021-07-26_14h36.44.102,MA Experiment 2,2021.1.2,Win32,59.95922773,,,,,,,,,,
0.7658,response_2,longValid,FOREARM,RETAILER,0,11,11,9,1,GRUMPY,LABYRINTH,long,resources/sound/prac_trials/practice_cue_human9.mp3,60fdb5f42a9cde17ef4958f2,18,Female,Right handed,2021-07-26_14h36.44.102,MA Experiment 2,2021.1.2,Win32,59.95922773,,,,,,,,,,
0.9315,response_2,shortFoil,NURSERY,CINNAMON,,,,,,ROBBER,RATTLESNAKE,long,resources/sound/trials/audio_stim_human64.mp3,60fdb5f42a9cde17ef4958f2,18,Female,Right handed,2021-07-26_14h36.44.102,MA Experiment 2,2021.1.2,Win32,59.95922773,0,0,0,32,1,,,,,
0.9776,response_2,longValid,STOCKING,CANDLELIGHT,,,,,,DRIZZLE,CARDINAL,short,resources/sound/trials/audio_stim_comp69.mp3,60fdb5f42a9cde17ef4958f2,18,Female,Right handed,2021-07-26_14h36.44.102,MA Experiment 2,2021.1.2,Win32,59.95922773,0,1,1,0,1,,,,,
2.6479,response_2,shortValid,EARTHWORM,HEADQUARTERS,,,,,,WHISTLE,TREASURER,long,resources/sound/trials/audio_stim_comp12.mp3,60fdb5f42a9cde17ef4958f2,18,Female,Right handed,2021-07-26_14h36.44.102,MA Experiment 2,2021.1.2,Win32,59.95922773,0,2,2,20,1,,,,,
1.5311,response_2,,BISHOP,MINERAL,,,,,,JOURNAL,ROBBERY,short,resources/sound/catchTrials/audio_control_human_project02.mp3,60fdb5f42a9cde17ef4958f2,18,Female,Right handed,2021-07-26_14h36.44.102,MA Experiment 2,2021.1.2,Win32,59.95922773,,,,,,0,31,31,13,1
3.7151,response_2,shortFoil,INCOME,UMBRELLA,,,,,,DAYLIGHT,MATERIAL,short,resources/sound/trials/audio_stim_human42.mp3,60fdb5f42a9cde17ef4958f2,18,Female,Right handed,2021-07-26_14h36.44.102,MA Experiment 2,2021.1.2,Win32,59.95922773,0,3,3,9,1,,,,,
1.9149,response_1,shortFoil,TEMPLE,CORRIDOR,,,,,,PAINTER,VEHICLE,long,resources/sound/trials/audio_stim_human47.mp3,60fdb5f42a9cde17ef4958f2,18,Female,Right handed,2021-07-26_14h36.44.102,MA Experiment 2,2021.1.2,Win32,59.95922773,0,4,4,28,1,,,,,
2.1978,response_1,longFoil,MEASLES,BUTTERFLY,,,,,,PARTY,SANCTUARY,short,resources/sound/trials/audio_stim_human50.mp3,60fdb5f42a9cde17ef4958f2,18,Female,Right handed,2021-07-26_14h36.44.102,MA Experiment 2,2021.1.2,Win32,59.95922773,0,5,5,14,1,,,,,
1.2606,response_1,shortValid,DWELLER,ALPHABET,,,,,,MARBLE,CUSTOMER,long,resources/sound/trials/audio_stim_comp65.mp3,60fdb5f42a9cde17ef4958f2,18,Female,Right handed,2021-07-26_14h36.44.102,MA Experiment 2,2021.1.2,Win32,59.95922773,0,6,6,21,1,,,,,
1.0806,response_2,,NEIGHBOUR,JANITOR,,,,,,CORNER,ENGINEER,long,resources/sound/catchTrials/audio_control_comp_project14.mp3,60fdb5f42a9cde17ef4958f2,18,Female,Right handed,2021-07-26_14h36.44.102,MA Experiment 2,2021.1.2,Win32,59.95922773,,,,,,0,17,17,17,1
1.2977,response_1,longValid,DUEL,HANDKERCHIEF,,,,,,WHISTLE,TREASURER,short,resources/sound/trials/audio_stim_comp12.mp3,60fdb5f42a9cde17ef4958f2,18,Female,Right handed,2021-07-26_14h36.44.102,MA Experiment 2,2021.1.2,Win32,59.95922773,0,7,7,3,1,,,,,
1.8147,response_2,longFoil,SINGER,GOVERNMENT,,,,,,CONCRETE,ENEMY,long,resources/sound/trials/audio_stim_human67.mp3,60fdb5f42a9cde17ef4958f2,18,Female,Right handed,2021-07-26_14h36.44.102,MA Experiment 2,2021.1.2,Win32,59.95922773,0,8,8,27,1,,,,,
3.3804,response_1,longFoil,WALRUS,PHYSICIAN,,,,,,ATHLETE,IVORY,long,resources/sound/trials/audio_stim_comp57.mp3,60fdb5f42a9cde17ef4958f2,18,Female,Right handed,2021-07-26_14h36.44.102,MA Experiment 2,2021.1.2,Win32,59.95922773,0,9,9,22,1,,,,,
1.7807,response_1,shortValid,PIANO,POTATO,,,,,,BRAINSTORM,GREEN NEEDLE,long,resources/sound/trials/audio_stim_original.mp3,60fdb5f42a9cde17ef4958f2,18,Female,Right handed,2021-07-26_14h36.44.102,MA Experiment 2,2021.1.2,Win32,59.95922773,0,10,10,33,1,,,,,
0.8804,response_2,,KERNEL,ICICLE,,,,,,BORDER,ALGEBRA,short,resources/sound/catchTrials/audio_control_comp_project00.mp3,60fdb5f42a9cde17ef4958f2,18,Female,Right handed,2021-07-26_14h36.44.102,MA Experiment 2,2021.1.2,Win32,59.95922773,,,,,,0,25,25,0,1
1.1819,response_2,longValid,DECOY,CLARINET,,,,,,ROBBER,RATTLESNAKE,short,resources/sound/trials/audio_stim_human64.mp3,60fdb5f42a9cde17ef4958f2,18,Female,Right handed,2021-07-26_14h36.44.102,MA Experiment 2,2021.1.2,Win32,59.95922773,0,11,11,15,1,,,,,
1.1637,response_1,longFoil,MEDICINE,NEIGHBOURHOOD,,,,,,MINER,EMERALD,short,resources/sound/trials/audio_stim_human6.mp3,60fdb5f42a9cde17ef4958f2,18,Female,Right handed,2021-07-26_14h36.44.102,MA Experiment 2,2021.1.2,Win32,59.95922773,0,12,12,13,1,,,,,
,,longValid,SCOOTER,ASBESTOS,,,,,,ATHLETE,IVORY,short,resources/sound/trials/audio_stim_comp57.mp3,60fdb5f42a9cde17ef4958f2,18,Female,Right handed,2021-07-26_14h36.44.102,MA Experiment 2,2021.1.2,Win32,59.95922773,0,13,13,5,1,,,,,
1.2316,response_1,longFoil,OLIVE,COMMITTEE,,,,,,PAINTER,VEHICLE,short,resources/sound/trials/audio_stim_human47.mp3,60fdb5f42a9cde17ef4958f2,18,Female,Right handed,2021-07-26_14h36.44.102,MA Experiment 2,2021.1.2,Win32,59.95922773,0,14,14,11,1,,,,,
1.1979,response_2,,TORTURE,INSTITUTE,,,,,,NAVY,RECTANGLE,long,resources/sound/catchTrials/audio_control_human_project06.mp3,60fdb5f42a9cde17ef4958f2,18,Female,Right handed,2021-07-26_14h36.44.102,MA Experiment 2,2021.1.2,Win32,59.95922773,,,,,,0,10,10,30,1
1.0812,response_1,shortFoil,SHOULDER,DIAMOND,,,,,,SACRED,GALAXY,short,resources/sound/trials/audio_stim_comp1.mp3,60fdb5f42a9cde17ef4958f2,18,Female,Right handed,2021-07-26_14h36.44.102,MA Experiment 2,2021.1.2,Win32,59.95922773,0,15,15,7,1,,,,,
0.9818,response_2,shortFoil,TRAITOR,MICROSCOPE,,,,,,CONCRETE,ENEMY,short,resources/sound/trials/audio_stim_human67.mp3,60fdb5f42a9cde17ef4958f2,18,Female,Right handed,2021-07-26_14h36.44.102,MA Experiment 2,2021.1.2,Win32,59.95922773,0,16,16,10,1,,,,,
0.8305,response_1,shortValid,RUSTY,TEMPERATURE,,,,,,MARBLE,CUSTOMER,short,resources/sound/trials/audio_stim_comp65.mp3,60fdb5f42a9cde17ef4958f2,18,Female,Right handed,2021-07-26_14h36.44.102,MA Experiment 2,2021.1.2,Win32,59.95922773,0,17,17,4,1,,,,,
0.7652,response_1,shortFoil,ANCHOR,DESTROYER,,,,,,MINER,EMERALD,long,resources/sound/trials/audio_stim_human6.mp3,60fdb5f42a9cde17ef4958f2,18,Female,Right handed,2021-07-26_14h36.44.102,MA Experiment 2,2021.1.2,Win32,59.95922773,0,18,18,30,1,,,,,
1.1984,response_2,,KETTLE,SETTLEMENT,,,,,,NAVY,RECTANGLE,short,resources/sound/catchTrials/audio_control_comp_project06.mp3,60fdb5f42a9cde17ef4958f2,18,Female,Right handed,2021-07-26_14h36.44.102,MA Experiment 2,2021.1.2,Win32,59.95922773,,,,,,0,21,21,6,1
1.1981,response_2,shortFoil,KENNEL,AVENUE,,,,,,DRIZZLE,CARDINAL,long,resources/sound/trials/audio_stim_comp69.mp3,60fdb5f42a9cde17ef4958f2,18,Female,Right handed,2021-07-26_14h36.44.102,MA Experiment 2,2021.1.2,Win32,59.95922773,0,19,19,17,1,,,,,
0.931,response_1,longFoil,FERTILE,SPECIALIST,,,,,,MINER,EMERALD,long,resources/sound/trials/audio_stim_comp6.mp3,60fdb5f42a9cde17ef4958f2,18,Female,Right handed,2021-07-26_14h36.44.102,MA Experiment 2,2021.1.2,Win32,59.95922773,0,20,20,18,1,,,,,
1.2978,response_1,shortValid,CRYSTAL,MINISTER,,,,,,BRAINSTORM,GREEN NEEDLE,short,resources/sound/trials/audio_stim_original.mp3,60fdb5f42a9cde17ef4958f2,18,Female,Right handed,2021-07-26_14h36.44.102,MA Experiment 2,2021.1.2,Win32,59.95922773,0,21,21,16,1,,,,,
1.2474,response_1,shortFoil,HAMSTER,MECHANIC,,,,,,WORKER,VISITOR,long,resources/sound/trials/audio_stim_comp17.mp3,60fdb5f42a9cde17ef4958f2,18,Female,Right handed,2021-07-26_14h36.44.102,MA Experiment 2,2021.1.2,Win32,59.95922773,0,22,22,23,1,,,,,
1.2645,response_2,,SEGMENT,OXYGEN,,,,,,IRIS,VIOLIN,long,resources/sound/catchTrials/audio_control_comp_project12.mp3,60fdb5f42a9cde17ef4958f2,18,Female,Right handed,2021-07-26_14h36.44.102,MA Experiment 2,2021.1.2,Win32,59.95922773,,,,,,0,30,30,20,1
0.8644,response_2,shortFoil,EVENING,CAMERA,,,,,,PARTY,SANCTUARY,long,resources/sound/trials/audio_stim_human50.mp3,60fdb5f42a9cde17ef4958f2,18,Female,Right handed,2021-07-26_14h36.44.102,MA Experiment 2,2021.1.2,Win32,59.95922773,0,23,23,31,1,,,,,
1.5651,response_1,shortFoil,GIRDLE,PROJECTOR,,,,,,WORKER,VISITOR,short,resources/sound/trials/audio_stim_comp17.mp3,60fdb5f42a9cde17ef4958f2,18,Female,Right handed,2021-07-26_14h36.44.102,MA Experiment 2,2021.1.2,Win32,59.95922773,0,24,24,6,1,,,,,
0.6147,response_1,longFoil,WRITING,MOSQUITO,,,,,,MINER,EMERALD,short,resources/sound/trials/audio_stim_comp6.mp3,60fdb5f42a9cde17ef4958f2,18,Female,Right handed,2021-07-26_14h36.44.102,MA Experiment 2,2021.1.2,Win32,59.95922773,0,25,25,1,1,,,,,
2.3314,response_2,shortValid,FEVER,DISSECTION,,,,,,RECEIPT,LIMOUSINE,short,resources/sound/trials/audio_stim_comp40.mp3,60fdb5f42a9cde17ef4958f2,18,Female,Right handed,2021-07-26_14h36.44.102,MA Experiment 2,2021.1.2,Win32,59.95922773,0,26,26,2,1,,,,,
0.8651,response_2,,TWEEZER,POLIO,,,,,,IRIS,VIOLIN,short,resources/sound/catchTrials/audio_control_human_project12.mp3,60fdb5f42a9cde17ef4958f2,18,Female,Right handed,2021-07-26_14h36.44.102,MA Experiment 2,2021.1.2,Win32,59.95922773,,,,,,0,1,1,8,1
0.5314,response_2,shortValid,MOONLIGHT,CIGARETTE,,,,,,RUBBER,PROPERTY,long,resources/sound/trials/audio_stim_human0.mp3,60fdb5f42a9cde17ef4958f2,18,Female,Right handed,2021-07-26_14h36.44.102,MA Experiment 2,2021.1.2,Win32,59.95922773,0,27,27,29,1,,,,,
0.7317,response_2,longValid,NATIVE,GRASSHOPPER,,,,,,RECEIPT,LIMOUSINE,long,resources/sound/trials/audio_stim_comp40.mp3,60fdb5f42a9cde17ef4958f2,18,Female,Right handed,2021-07-26_14h36.44.102,MA Experiment 2,2021.1.2,Win32,59.95922773,0,28,28,19,1,,,,,
0.9986,response_1,shortFoil,PICTURE,INDUSTRY,,,,,,HARDWARE,OVERCOAT,short,resources/sound/trials/audio_stim_human35.mp3,60fdb5f42a9cde17ef4958f2,18,Female,Right handed,2021-07-26_14h36.44.102,MA Experiment 2,2021.1.2,Win32,59.95922773,0,29,29,8,1,,,,,
0.4967,response_2,longFoil,PIPING,OPENING,,,,,,DAYLIGHT,MATERIAL,long,resources/sound/trials/audio_stim_human42.mp3,60fdb5f42a9cde17ef4958f2,18,Female,Right handed,2021-07-26_14h36.44.102,MA Experiment 2,2021.1.2,Win32,59.95922773,0,30,30,26,1,,,,,
0.5797,response_2,,NOVEL,GYMNASTICS,,,,,,HOBBY,COLONY,long,resources/sound/catchTrials/audio_control_human_project04.mp3,60fdb5f42a9cde17ef4958f2,18,Female,Right handed,2021-07-26_14h36.44.102,MA Experiment 2,2021.1.2,Win32,59.95922773,,,,,,0,11,11,27,1
1.2981,response_1,longFoil,DIAL,GORILLA,,,,,,HARDWARE,OVERCOAT,long,resources/sound/trials/audio_stim_human35.mp3,60fdb5f42a9cde17ef4958f2,18,Female,Right handed,2021-07-26_14h36.44.102,MA Experiment 2,2021.1.2,Win32,59.95922773,0,31,31,25,1,,,,,
0.7151,response_1,shortFoil,BERRY,MONUMENT,,,,,,RUBBER,PROPERTY,short,resources/sound/trials/audio_stim_human0.mp3,60fdb5f42a9cde17ef4958f2,18,Female,Right handed,2021-07-26_14h36.44.102,MA Experiment 2,2021.1.2,Win32,59.95922773,0,32,32,12,1,,,,,
0.5315,response_2,longValid,FAIRY,CITIZEN,,,,,,SACRED,GALAXY,long,resources/sound/trials/audio_stim_comp1.mp3,60fdb5f42a9cde17ef4958f2,18,Female,Right handed,2021-07-26_14h36.44.102,MA Experiment 2,2021.1.2,Win32,59.95922773,0,33,33,24,1,,,,,
2.4307,response_2,shortFoil,SADDLE,ABDOMEN,,,,,,ATHLETE,IVORY,long,resources/sound/trials/audio_stim_comp57.mp3,60fdb5f42a9cde17ef4958f2,18,Female,Right handed,2021-07-26_14h36.44.102,MA Experiment 2,2021.1.2,Win32,59.95922773,1,0,34,22,1,,,,,
1.9659,response_1,shortFoil,SULPHUR,INFECTION,,,,,,ATHLETE,IVORY,short,resources/sound/trials/audio_stim_comp57.mp3,60fdb5f42a9cde17ef4958f2,18,Female,Right handed,2021-07-26_14h36.44.102,MA Experiment 2,2021.1.2,Win32,59.95922773,1,1,35,5,1,,,,,
1.3145,response_2,longValid,STATION,PHOTOGRAPH,,,,,,MARBLE,CUSTOMER,short,resources/sound/trials/audio_stim_comp65.mp3,60fdb5f42a9cde17ef4958f2,18,Female,Right handed,2021-07-26_14h36.44.102,MA Experiment 2,2021.1.2,Win32,59.95922773,1,2,36,4,1,,,,,
1.1806,response_2,,SODA,APPLIANCE,,,,,,SPINACH,APRICOT,short,resources/sound/catchTrials/audio_control_comp_project18.mp3,60fdb5f42a9cde17ef4958f2,18,Female,Right handed,2021-07-26_14h36.44.102,MA Experiment 2,2021.1.2,Win32,59.95922773,,,,,,0,29,29,5,1
0.6985,response_2,longValid,MUSCLE,CROCODILE,,,,,,DAYLIGHT,MATERIAL,short,resources/sound/trials/audio_stim_human42.mp3,60fdb5f42a9cde17ef4958f2,18,Female,Right handed,2021-07-26_14h36.44.102,MA Experiment 2,2021.1.2,Win32,59.95922773,1,3,37,9,1,,,,,
0.8817,response_2,longValid,VILLAGE,ATTENDANT,,,,,,PARTY,SANCTUARY,short,resources/sound/trials/audio_stim_human50.mp3,60fdb5f42a9cde17ef4958f2,18,Female,Right handed,2021-07-26_14h36.44.102,MA Experiment 2,2021.1.2,Win32,59.95922773,1,4,38,14,1,,,,,
1.4651,response_2,longValid,PERSON,LEMONADE,,,,,,MINER,EMERALD,long,resources/sound/trials/audio_stim_comp6.mp3,60fdb5f42a9cde17ef4958f2,18,Female,Right handed,2021-07-26_14h36.44.102,MA Experiment 2,2021.1.2,Win32,59.95922773,1,5,39,18,1,,,,,
1.0977,response_1,shortValid,FATHER,INTERVIEW,,,,,,SACRED,GALAXY,short,resources/sound/trials/audio_stim_comp1.mp3,60fdb5f42a9cde17ef4958f2,18,Female,Right handed,2021-07-26_14h36.44.102,MA Experiment 2,2021.1.2,Win32,59.95922773,1,6,40,7,1,,,,,
0.7803,response_2,,CURFEW,HOSPITAL,,,,,,ICY,JITTERBUG,long,resources/sound/catchTrials/audio_control_comp_project08.mp3,60fdb5f42a9cde17ef4958f2,18,Female,Right handed,2021-07-26_14h36.44.102,MA Experiment 2,2021.1.2,Win32,59.95922773,,,,,,0,27,27,23,1
0.8317,response_1,longFoil,PATIENT,ANTIQUE,,,,,,WORKER,VISITOR,long,resources/sound/trials/audio_stim_comp17.mp3,60fdb5f42a9cde17ef4958f2,18,Female,Right handed,2021-07-26_14h36.44.102,MA Experiment 2,2021.1.2,Win32,59.95922773,1,7,41,23,1,,,,,
1.7977,response_1,shortValid,CHIPMUNK,POLICEMAN,,,,,,CONCRETE,ENEMY,short,resources/sound/trials/audio_stim_human67.mp3,60fdb5f42a9cde17ef4958f2,18,Female,Right handed,2021-07-26_14h36.44.102,MA Experiment 2,2021.1.2,Win32,59.95922773,1,8,42,10,1,,,,,
1.0154,response_2,longFoil,NAPKIN,BEVERAGE,,,,,,RECEIPT,LIMOUSINE,long,resources/sound/trials/audio_stim_comp40.mp3,60fdb5f42a9cde17ef4958f2,18,Female,Right handed,2021-07-26_14h36.44.102,MA Experiment 2,2021.1.2,Win32,59.95922773,1,9,43,19,1,,,,,
0.6147,response_1,longValid,LIGHTNING,TANGERINE,,,,,,RUBBER,PROPERTY,short,resources/sound/trials/audio_stim_human0.mp3,60fdb5f42a9cde17ef4958f2,18,Female,Right handed,2021-07-26_14h36.44.102,MA Experiment 2,2021.1.2,Win32,59.95922773,1,10,44,12,1,,,,,
0.6802,response_2,,MORNING,CONVENTION,,,,,,HOBBY,COLONY,short,resources/sound/catchTrials/audio_control_human_project04.mp3,60fdb5f42a9cde17ef4958f2,18,Female,Right handed,2021-07-26_14h36.44.102,MA Experiment 2,2021.1.2,Win32,59.95922773,,,,,,0,15,15,11,1
0.5476,response_2,longValid,PODIUM,CABINET,,,,,,PARTY,SANCTUARY,long,resources/sound/trials/audio_stim_human50.mp3,60fdb5f42a9cde17ef4958f2,18,Female,Right handed,2021-07-26_14h36.44.102,MA Experiment 2,2021.1.2,Win32,59.95922773,1,11,45,31,1,,,,,
0.7481,response_1,longFoil,VAPOUR,CATHEDRAL,,,,,,BRAINSTORM,GREEN NEEDLE,short,resources/sound/trials/audio_stim_original.mp3,60fdb5f42a9cde17ef4958f2,18,Female,Right handed,2021-07-26_14h36.44.102,MA Experiment 2,2021.1.2,Win32,59.95922773,1,12,46,16,1,,,,,
1.0139,response_1,shortValid,MISTRESS,GALLERY,,,,,,MINER,EMERALD,long,resources/sound/trials/audio_stim_human6.mp3,60fdb5f42a9cde17ef4958f2,18,Female,Right handed,2021-07-26_14h36.44.102,MA Experiment 2,2021.1.2,Win32,59.95922773,1,13,47,30,1,,,,,
1.4321,response_1,shortValid,VESSEL,AMBULANCE,,,,,,MINER,EMERALD,short,resources/sound/trials/audio_stim_comp6.mp3,60fdb5f42a9cde17ef4958f2,18,Female,Right handed,2021-07-26_14h36.44.102,MA Experiment 2,2021.1.2,Win32,59.95922773,1,14,48,1,1,,,,,
0.8654,response_1,,CEREAL,FIREWOOD,,,,,,VIOLET,LUBRICANT,long,resources/sound/catchTrials/audio_control_human_project07.mp3,60fdb5f42a9cde17ef4958f2,18,Female,Right handed,2021-07-26_14h36.44.102,MA Experiment 2,2021.1.2,Win32,59.95922773,,,,,,0,0,0,28,1
0.648,response_2,longFoil,VALLEY,NEWSPAPER,,,,,,RECEIPT,LIMOUSINE,short,resources/sound/trials/audio_stim_comp40.mp3,60fdb5f42a9cde17ef4958f2,18,Female,Right handed,2021-07-26_14h36.44.102,MA Experiment 2,2021.1.2,Win32,59.95922773,1,15,49,2,1,,,,,
0.981,response_2,longValid,NECKLACE,ENVELOPE,,,,,,ROBBER,RATTLESNAKE,long,resources/sound/trials/audio_stim_human64.mp3,60fdb5f42a9cde17ef4958f2,18,Female,Right handed,2021-07-26_14h36.44.102,MA Experiment 2,2021.1.2,Win32,59.95922773,1,16,50,32,1,,,,,
1.8485,response_2,longFoil,DIVING,MESSENGER,,,,,,DRIZZLE,CARDINAL,short,resources/sound/trials/audio_stim_comp69.mp3,60fdb5f42a9cde17ef4958f2,18,Female,Right handed,2021-07-26_14h36.44.102,MA Experiment 2,2021.1.2,Win32,59.95922773,1,17,51,0,1,,,,,
1.1158,response_2,longValid,HAMMER,FISHERMAN,,,,,,DRIZZLE,CARDINAL,long,resources/sound/trials/audio_stim_comp69.mp3,60fdb5f42a9cde17ef4958f2,18,Female,Right handed,2021-07-26_14h36.44.102,MA Experiment 2,2021.1.2,Win32,59.95922773,1,18,52,17,1,,,,,
0.6975,response_2,,DANCER,ALCOHOL,,,,,,NAVY,RECTANGLE,long,resources/sound/catchTrials/audio_control_comp_project06.mp3,60fdb5f42a9cde17ef4958f2,18,Female,Right handed,2021-07-26_14h36.44.102,MA Experiment 2,2021.1.2,Win32,59.95922773,,,,,,0,12,12,22,1
1.5137,response_1,shortFoil,WIRE,HONEYMOON,,,,,,HARDWARE,OVERCOAT,long,resources/sound/trials/audio_stim_human35.mp3,60fdb5f42a9cde17ef4958f2,18,Female,Right handed,2021-07-26_14h36.44.102,MA Experiment 2,2021.1.2,Win32,59.95922773,1,19,53,25,1,,,,,
0.9645,response_1,longValid,CAPTAIN,ORNAMENT,,,,,,CONCRETE,ENEMY,long,resources/sound/trials/audio_stim_human67.mp3,60fdb5f42a9cde17ef4958f2,18,Female,Right handed,2021-07-26_14h36.44.102,MA Experiment 2,2021.1.2,Win32,59.95922773,1,20,54,27,1,,,,,
0.6646,response_1,shortValid,UNCLE,FURNITURE,,,,,,SACRED,GALAXY,long,resources/sound/trials/audio_stim_comp1.mp3,60fdb5f42a9cde17ef4958f2,18,Female,Right handed,2021-07-26_14h36.44.102,MA Experiment 2,2021.1.2,Win32,59.95922773,1,21,55,24,1,,,,,
1.3636,response_2,shortFoil,SHEEPSKIN,CHOCOLATE,,,,,,ROBBER,RATTLESNAKE,short,resources/sound/trials/audio_stim_human64.mp3,60fdb5f42a9cde17ef4958f2,18,Female,Right handed,2021-07-26_14h36.44.102,MA Experiment 2,2021.1.2,Win32,59.95922773,1,22,56,15,1,,,,,
1.0478,response_2,,MURAL,REFEREE,,,,,,HOBBY,COLONY,long,resources/sound/catchTrials/audio_control_comp_project04.mp3,60fdb5f42a9cde17ef4958f2,18,Female,Right handed,2021-07-26_14h36.44.102,MA Experiment 2,2021.1.2,Win32,59.95922773,,,,,,0,19,19,18,1
1.7803,response_4,longFoil,PRINCESS,HURRICANE,,,,,,WHISTLE,TREASURER,short,resources/sound/trials/audio_stim_comp12.mp3,60fdb5f42a9cde17ef4958f2,18,Female,Right handed,2021-07-26_14h36.44.102,MA Experiment 2,2021.1.2,Win32,59.95922773,1,23,57,3,1,,,,,
1.1478,response_1,longValid,LIQUID,SAXOPHONE,,,,,,PAINTER,VEHICLE,long,resources/sound/trials/audio_stim_human47.mp3,60fdb5f42a9cde17ef4958f2,18,Female,Right handed,2021-07-26_14h36.44.102,MA Experiment 2,2021.1.2,Win32,59.95922773,1,24,58,28,1,,,,,
1.164,response_1,shortFoil,CANTEEN,INSTRUCTOR,,,,,,RUBBER,PROPERTY,long,resources/sound/trials/audio_stim_human0.mp3,60fdb5f42a9cde17ef4958f2,18,Female,Right handed,2021-07-26_14h36.44.102,MA Experiment 2,2021.1.2,Win32,59.95922773,1,25,59,29,1,,,,,
1.5135,response_1,longValid,HURDLE,ATHLETICS,,,,,,BRAINSTORM,GREEN NEEDLE,long,resources/sound/trials/audio_stim_original.mp3,60fdb5f42a9cde17ef4958f2,18,Female,Right handed,2021-07-26_14h36.44.102,MA Experiment 2,2021.1.2,Win32,59.95922773,1,26,60,33,1,,,,,
0.7312,response_2,,RABBI,ACROBAT,,,,,,HOBBY,COLONY,short,resources/sound/catchTrials/audio_control_comp_project04.mp3,60fdb5f42a9cde17ef4958f2,18,Female,Right handed,2021-07-26_14h36.44.102,MA Experiment 2,2021.1.2,Win32,59.95922773,,,,,,0,3,3,2,1
1.1147,response_2,longValid,MURDER,GINGERBREAD,,,,,,WORKER,VISITOR,short,resources/sound/trials/audio_stim_comp17.mp3,60fdb5f42a9cde17ef4958f2,18,Female,Right handed,2021-07-26_14h36.44.102,MA Experiment 2,2021.1.2,Win32,59.95922773,1,27,61,6,1,,,,,
1.0317,response_2,longValid,CIGAR,EMULSION,,,,,,WHISTLE,TREASURER,long,resources/sound/trials/audio_stim_comp12.mp3,60fdb5f42a9cde17ef4958f2,18,Female,Right handed,2021-07-26_14h36.44.102,MA Experiment 2,2021.1.2,Win32,59.95922773,1,28,62,20,1,,,,,
1.964,response_2,shortFoil,OFFICE,LECTURER,,,,,,DAYLIGHT,MATERIAL,long,resources/sound/trials/audio_stim_human42.mp3,60fdb5f42a9cde17ef4958f2,18,Female,Right handed,2021-07-26_14h36.44.102,MA Experiment 2,2021.1.2,Win32,59.95922773,1,29,63,26,1,,,,,
1.2649,response_2,longValid,ACRE,ADMIRAL,,,,,,MARBLE,CUSTOMER,long,resources/sound/trials/audio_stim_comp65.mp3,60fdb5f42a9cde17ef4958f2,18,Female,Right handed,2021-07-26_14h36.44.102,MA Experiment 2,2021.1.2,Win32,59.95922773,1,30,64,21,1,,,,,
1.046,response_1,,DOORWAY,HEROIN,,,,,,JUGGLER,DANDELION,long,resources/sound/catchTrials/audio_control_human_project09.mp3,60fdb5f42a9cde17ef4958f2,18,Female,Right handed,2021-07-26_14h36.44.102,MA Experiment 2,2021.1.2,Win32,59.95922773,,,,,,0,16,16,31,1
0.6478,response_2,longValid,BURNER,INJURY,,,,,,MINER,EMERALD,short,resources/sound/trials/audio_stim_human6.mp3,60fdb5f42a9cde17ef4958f2,18,Female,Right handed,2021-07-26_14h36.44.102,MA Experiment 2,2021.1.2,Win32,59.95922773,1,31,65,13,1,,,,,
1.0987,response_1,shortValid,LEADER,MERCURY,,,,,,HARDWARE,OVERCOAT,short,resources/sound/trials/audio_stim_human35.mp3,60fdb5f42a9cde17ef4958f2,18,Female,Right handed,2021-07-26_14h36.44.102,MA Experiment 2,2021.1.2,Win32,59.95922773,1,32,66,8,1,,,,,
1.0487,response_1,shortValid,BUTTER,VINEGAR,,,,,,PAINTER,VEHICLE,short,resources/sound/trials/audio_stim_human47.mp3,60fdb5f42a9cde17ef4958f2,18,Female,Right handed,2021-07-26_14h36.44.102,MA Experiment 2,2021.1.2,Win32,59.95922773,1,33,67,11,1,,,,,
0.9315,response_1,longFoil,INVOICE,MEDICINE,,,,,,RUBBER,PROPERTY,long,resources/sound/trials/audio_stim_human0.mp3,60fdb5f42a9cde17ef4958f2,18,Female,Right handed,2021-07-26_14h36.44.102,MA Experiment 2,2021.1.2,Win32,59.95922773,2,0,68,29,1,,,,,
0.7976,response_2,longValid,FERTILE,MERCURY,,,,,,SACRED,GALAXY,short,resources/sound/trials/audio_stim_comp1.mp3,60fdb5f42a9cde17ef4958f2,18,Female,Right handed,2021-07-26_14h36.44.102,MA Experiment 2,2021.1.2,Win32,59.95922773,2,1,69,7,1,,,,,
1.1304,response_2,shortValid,BISHOP,PROPELLER,,,,,,RECEIPT,LIMOUSINE,long,resources/sound/trials/audio_stim_comp40.mp3,60fdb5f42a9cde17ef4958f2,18,Female,Right handed,2021-07-26_14h36.44.102,MA Experiment 2,2021.1.2,Win32,59.95922773,2,2,70,19,1,,,,,
0.9483,response_2,,PRINCESS,DIAMOND,,,,,,CORNER,ENGINEER,short,resources/sound/catchTrials/audio_control_human_project14.mp3,60fdb5f42a9cde17ef4958f2,18,Female,Right handed,2021-07-26_14h36.44.102,MA Experiment 2,2021.1.2,Win32,59.95922773,,,,,,0,6,6,10,1
1.0481,response_1,shortValid,SODA,CORRIDOR,,,,,,CONCRETE,ENEMY,long,resources/sound/trials/audio_stim_human67.mp3,60fdb5f42a9cde17ef4958f2,18,Female,Right handed,2021-07-26_14h36.44.102,MA Experiment 2,2021.1.2,Win32,59.95922773,2,3,71,27,1,,,,,
1.1985,response_2,longValid,CRYSTAL,CATHEDRAL,,,,,,HARDWARE,OVERCOAT,short,resources/sound/trials/audio_stim_human35.mp3,60fdb5f42a9cde17ef4958f2,18,Female,Right handed,2021-07-26_14h36.44.102,MA Experiment 2,2021.1.2,Win32,59.95922773,2,4,72,8,1,,,,,
1.6313,response_2,longFoil,GRADUATE,FAMILY,,,,,,DRIZZLE,CARDINAL,long,resources/sound/trials/audio_stim_comp69.mp3,60fdb5f42a9cde17ef4958f2,18,Female,Right handed,2021-07-26_14h36.44.102,MA Experiment 2,2021.1.2,Win32,59.95922773,2,5,73,17,1,,,,,
0.7984,response_1,shortValid,DUEL,LECTURER,,,,,,PARTY,SANCTUARY,long,resources/sound/trials/audio_stim_human50.mp3,60fdb5f42a9cde17ef4958f2,18,Female,Right handed,2021-07-26_14h36.44.102,MA Experiment 2,2021.1.2,Win32,59.95922773,2,6,74,31,1,,,,,
1.9156,response_2,,WRITING,ACROBAT,,,,,,SPINACH,APRICOT,long,resources/sound/catchTrials/audio_control_comp_project18.mp3,60fdb5f42a9cde17ef4958f2,18,Female,Right handed,2021-07-26_14h36.44.102,MA Experiment 2,2021.1.2,Win32,59.95922773,,,,,,0,22,22,21,1
1.1479,response_1,longValid,PIANO,MESSENGER,,,,,,PAINTER,VEHICLE,short,resources/sound/trials/audio_stim_human47.mp3,60fdb5f42a9cde17ef4958f2,18,Female,Right handed,2021-07-26_14h36.44.102,MA Experiment 2,2021.1.2,Win32,59.95922773,2,7,75,11,1,,,,,
1.1312,response_2,shortFoil,NATIVE,LEMONADE,,,,,,MARBLE,CUSTOMER,short,resources/sound/trials/audio_stim_comp65.mp3,60fdb5f42a9cde17ef4958f2,18,Female,Right handed,2021-07-26_14h36.44.102,MA Experiment 2,2021.1.2,Win32,59.95922773,2,8,76,4,1,,,,,
0.8812,response_2,shortFoil,KENNEL,MINERAL,,,,,,SACRED,GALAXY,long,resources/sound/trials/audio_stim_comp1.mp3,60fdb5f42a9cde17ef4958f2,18,Female,Right handed,2021-07-26_14h36.44.102,MA Experiment 2,2021.1.2,Win32,59.95922773,2,9,77,24,1,,,,,
1.0479,response_1,longFoil,MURDER,MOSQUITO,,,,,,BRAINSTORM,GREEN NEEDLE,long,resources/sound/trials/audio_stim_original.mp3,60fdb5f42a9cde17ef4958f2,18,Female,Right handed,2021-07-26_14h36.44.102,MA Experiment 2,2021.1.2,Win32,59.95922773,2,10,78,33,1,,,,,
1.0481,response_2,,PATIENT,ICICLE,,,,,,CORNER,ENGINEER,long,resources/sound/catchTrials/audio_control_human_project14.mp3,60fdb5f42a9cde17ef4958f2,18,Female,Right handed,2021-07-26_14h36.44.102,MA Experiment 2,2021.1.2,Win32,59.95922773,,,,,,0,28,28,26,1
0.8476,response_2,longValid,CEREAL,AMMONIA,,,,,,DAYLIGHT,MATERIAL,long,resources/sound/trials/audio_stim_human42.mp3,60fdb5f42a9cde17ef4958f2,18,Female,Right handed,2021-07-26_14h36.44.102,MA Experiment 2,2021.1.2,Win32,59.95922773,2,11,79,26,1,,,,,
1.6815,response_1,longFoil,CAPTAIN,ENVELOPE,,,,,,WHISTLE,TREASURER,long,resources/sound/trials/audio_stim_comp12.mp3,60fdb5f42a9cde17ef4958f2,18,Female,Right handed,2021-07-26_14h36.44.102,MA Experiment 2,2021.1.2,Win32,59.95922773,2,12,80,20,1,,,,,
0.932,response_2,shortFoil,FATHER,FURNITURE,,,,,,RECEIPT,LIMOUSINE,short,resources/sound/trials/audio_stim_comp40.mp3,60fdb5f42a9cde17ef4958f2,18,Female,Right handed,2021-07-26_14h36.44.102,MA Experiment 2,2021.1.2,Win32,59.95922773,2,13,81,2,1,,,,,
0.8484,response_1,longValid,OFFICE,POTATO,,,,,,CONCRETE,ENEMY,short,resources/sound/trials/audio_stim_human67.mp3,60fdb5f42a9cde17ef4958f2,18,Female,Right handed,2021-07-26_14h36.44.102,MA Experiment 2,2021.1.2,Win32,59.95922773,2,14,82,10,1,,,,,
1.2475,response_1,,HAMSTER,PROJECTOR,,,,,,POISON,REVOLVER,long,resources/sound/catchTrials/audio_control_human_project01.mp3,60fdb5f42a9cde17ef4958f2,18,Female,Right handed,2021-07-26_14h36.44.102,MA Experiment 2,2021.1.2,Win32,59.95922773,,,,,,0,8,8,25,1
0.9321,response_1,shortFoil,NEIGHBOUR,MOLECULE,,,,,,MINER,EMERALD,long,resources/sound/trials/audio_stim_comp6.mp3,60fdb5f42a9cde17ef4958f2,18,Female,Right handed,2021-07-26_14h36.44.102,MA Experiment 2,2021.1.2,Win32,59.95922773,2,15,83,18,1,,,,,
1.2814,response_1,shortValid,NOVEL,GALLERY,,,,,,ATHLETE,IVORY,short,resources/sound/trials/audio_stim_comp57.mp3,60fdb5f42a9cde17ef4958f2,18,Female,Right handed,2021-07-26_14h36.44.102,MA Experiment 2,2021.1.2,Win32,59.95922773,2,16,84,5,1,,,,,
0.5155,response_1,longFoil,SOFA,MINISTER,,,,,,WORKER,VISITOR,short,resources/sound/trials/audio_stim_comp17.mp3,60fdb5f42a9cde17ef4958f2,18,Female,Right handed,2021-07-26_14h36.44.102,MA Experiment 2,2021.1.2,Win32,59.95922773,2,17,85,6,1,,,,,
1.1316,response_2,longValid,STATION,VINEGAR,,,,,,MINER,EMERALD,long,resources/sound/trials/audio_stim_human6.mp3,60fdb5f42a9cde17ef4958f2,18,Female,Right handed,2021-07-26_14h36.44.102,MA Experiment 2,2021.1.2,Win32,59.95922773,2,18,86,30,1,,,,,
0.5984,response_2,,CIGAR,PROFESSOR,,,,,,NAVY,RECTANGLE,short,resources/sound/catchTrials/audio_control_human_project06.mp3,60fdb5f42a9cde17ef4958f2,18,Female,Right handed,2021-07-26_14h36.44.102,MA Experiment 2,2021.1.2,Win32,59.95922773,,,,,,0,4,4,14,1
1.5316,response_1,shortFoil,RUSTY,CINNAMON,,,,,,WHISTLE,TREASURER,short,resources/sound/trials/audio_stim_comp12.mp3,60fdb5f42a9cde17ef4958f2,18,Female,Right handed,2021-07-26_14h36.44.102,MA Experiment 2,2021.1.2,Win32,59.95922773,2,19,87,3,1,,,,,
0.9655,response_1,shortValid,SHOULDER,FISHERMAN,,,,,,PAINTER,VEHICLE,long,resources/sound/trials/audio_stim_human47.mp3,60fdb5f42a9cde17ef4958f2,18,Female,Right handed,2021-07-26_14h36.44.102,MA Experiment 2,2021.1.2,Win32,59.95922773,2,20,88,28,1,,,,,
0.9141,response_1,shortFoil,CABIN,ABDOMEN,,,,,,BRAINSTORM,GREEN NEEDLE,short,resources/sound/trials/audio_stim_original.mp3,60fdb5f42a9cde17ef4958f2,18,Female,Right handed,2021-07-26_14h36.44.102,MA Experiment 2,2021.1.2,Win32,59.95922773,2,21,89,16,1,,,,,
1.3137,response_1,longValid,CURFEW,GORILLA,,,,,,ATHLETE,IVORY,long,resources/sound/trials/audio_stim_comp57.mp3,60fdb5f42a9cde17ef4958f2,18,Female,Right handed,2021-07-26_14h36.44.102,MA Experiment 2,2021.1.2,Win32,59.95922773,2,22,90,22,1,,,,,
0.916,response_1,,MEDICINE,MEDICINE,,,,,,POISON,REVOLVER,short,resources/sound/catchTrials/audio_control_human_project01.mp3,60fdb5f42a9cde17ef4958f2,18,Female,Right handed,2021-07-26_14h36.44.102,MA Experiment 2,2021.1.2,Win32,59.95922773,,,,,,0,23,23,9,1
1.8308,response_1,longFoil,DIVING,JANITOR,,,,,,MARBLE,CUSTOMER,long,resources/sound/trials/audio_stim_comp65.mp3,60fdb5f42a9cde17ef4958f2,18,Female,Right handed,2021-07-26_14h36.44.102,MA Experiment 2,2021.1.2,Win32,59.95922773,2,23,91,21,1,,,,,
1.0311,response_2,shortValid,SADDLE,ANTIQUE,,,,,,DRIZZLE,CARDINAL,short,resources/sound/trials/audio_stim_comp69.mp3,60fdb5f42a9cde17ef4958f2,18,Female,Right handed,2021-07-26_14h36.44.102,MA Experiment 2,2021.1.2,Win32,59.95922773,2,24,92,0,1,,,,,
1.1634,response_2,longValid,BERRY,GOVERNMENT,,,,,,WORKER,VISITOR,long,resources/sound/trials/audio_stim_comp17.mp3,60fdb5f42a9cde17ef4958f2,18,Female,Right handed,2021-07-26_14h36.44.102,MA Experiment 2,2021.1.2,Win32,59.95922773,2,25,93,23,1,,,,,
0.8644,response_2,longValid,FAIRY,OPENING,,,,,,MINER,EMERALD,short,resources/sound/trials/audio_stim_comp6.mp3,60fdb5f42a9cde17ef4958f2,18,Female,Right handed,2021-07-26_14h36.44.102,MA Experiment 2,2021.1.2,Win32,59.95922773,2,26,94,1,1,,,,,
1.1317,response_1,,LIGHTNING,CIGARETTE,,,,,,VIOLET,LUBRICANT,long,resources/sound/catchTrials/audio_control_comp_project07.mp3,60fdb5f42a9cde17ef4958f2,18,Female,Right handed,2021-07-26_14h36.44.102,MA Experiment 2,2021.1.2,Win32,59.95922773,,,,,,0,24,24,19,1
0.748,response_2,longValid,BEETLE,PHOTOGRAPH,,,,,,HARDWARE,OVERCOAT,long,resources/sound/trials/audio_stim_human35.mp3,60fdb5f42a9cde17ef4958f2,18,Female,Right handed,2021-07-26_14h36.44.102,MA Experiment 2,2021.1.2,Win32,59.95922773,2,27,95,25,1,,,,,
1.1816,response_2,shortFoil,ACRE,DISSECTION,,,,,,MINER,EMERALD,short,resources/sound/trials/audio_stim_human6.mp3,60fdb5f42a9cde17ef4958f2,18,Female,Right handed,2021-07-26_14h36.44.102,MA Experiment 2,2021.1.2,Win32,59.95922773,2,28,96,13,1,,,,,
1.2472,response_2,longFoil,VESSEL,HEADQUARTERS,,,,,,ROBBER,RATTLESNAKE,short,resources/sound/trials/audio_stim_human64.mp3,60fdb5f42a9cde17ef4958f2,18,Female,Right handed,2021-07-26_14h36.44.102,MA Experiment 2,2021.1.2,Win32,59.95922773,2,29,97,15,1,,,,,
0.9489,response_2,shortValid,MUSCLE,BUTTERFLY,,,,,,ROBBER,RATTLESNAKE,long,resources/sound/trials/audio_stim_human64.mp3,60fdb5f42a9cde17ef4958f2,18,Female,Right handed,2021-07-26_14h36.44.102,MA Experiment 2,2021.1.2,Win32,59.95922773,2,30,98,32,1,,,,,
0.9472,response_2,,WINDOW,CARNATION,,,,,,CORNER,ENGINEER,short,resources/sound/catchTrials/audio_control_comp_project14.mp3,60fdb5f42a9cde17ef4958f2,18,Female,Right handed,2021-07-26_14h36.44.102,MA Experiment 2,2021.1.2,Win32,59.95922773,,,,,,0,18,18,1,1
1.0648,response_1,shortValid,NURSERY,MECHANIC,,,,,,DAYLIGHT,MATERIAL,short,resources/sound/trials/audio_stim_human42.mp3,60fdb5f42a9cde17ef4958f2,18,Female,Right handed,2021-07-26_14h36.44.102,MA Experiment 2,2021.1.2,Win32,59.95922773,2,31,99,9,1,,,,,
0.831,response_1,shortValid,INVOICE,UMBRELLA,,,,,,PARTY,SANCTUARY,short,resources/sound/trials/audio_stim_human50.mp3,60fdb5f42a9cde17ef4958f2,18,Female,Right handed,2021-07-26_14h36.44.102,MA Experiment 2,2021.1.2,Win32,59.95922773,2,32,100,14,1,,,,,
1.2479,response_2,shortValid,SHEEPSKIN,ASBESTOS,,,,,,RUBBER,PROPERTY,short,resources/sound/trials/audio_stim_human0.mp3,60fdb5f42a9cde17ef4958f2,18,Female,Right handed,2021-07-26_14h36.44.102,MA Experiment 2,2021.1.2,Win32,59.95922773,2,33,101,12,1,,,,,
1.2145,response_1,longFoil,TUMBLE,EMULSION,,,,,,PAINTER,VEHICLE,long,resources/sound/trials/audio_stim_human47.mp3,60fdb5f42a9cde17ef4958f2,18,Female,Right handed,2021-07-26_14h36.44.102,MA Experiment 2,2021.1.2,Win32,59.95922773,3,0,102,28,1,,,,,
0.9434,response_2,shortFoil,UNCLE,ALCOHOL,,,,,,DRIZZLE,CARDINAL,short,resources/sound/trials/audio_stim_comp69.mp3,60fdb5f42a9cde17ef4958f2,18,Female,Right handed,2021-07-26_14h36.44.102,MA Experiment 2,2021.1.2,Win32,59.95922773,3,1,103,0,1,,,,,
1.2155,response_2,longFoil,MOONLIGHT,INSTRUCTOR,,,,,,RUBBER,PROPERTY,short,resources/sound/trials/audio_stim_human0.mp3,60fdb5f42a9cde17ef4958f2,18,Female,Right handed,2021-07-26_14h36.44.102,MA Experiment 2,2021.1.2,Win32,59.95922773,3,2,104,12,1,,,,,
1.3654,response_2,,HAMMER,FIREWOOD,,,,,,IRIS,VIOLIN,short,resources/sound/catchTrials/audio_control_comp_project12.mp3,60fdb5f42a9cde17ef4958f2,18,Female,Right handed,2021-07-26_14h36.44.102,MA Experiment 2,2021.1.2,Win32,59.95922773,,,,,,0,26,26,4,1
2.4311,response_1,longFoil,KERNEL,NEIGHBOURHOOD,,,,,,MARBLE,CUSTOMER,short,resources/sound/trials/audio_stim_comp65.mp3,60fdb5f42a9cde17ef4958f2,18,Female,Right handed,2021-07-26_14h36.44.102,MA Experiment 2,2021.1.2,Win32,59.95922773,3,3,105,4,1,,,,,
1.1815,response_1,shortFoil,NECKLACE,CLARINET,,,,,,MARBLE,CUSTOMER,long,resources/sound/trials/audio_stim_comp65.mp3,60fdb5f42a9cde17ef4958f2,18,Female,Right handed,2021-07-26_14h36.44.102,MA Experiment 2,2021.1.2,Win32,59.95922773,3,4,106,21,1,,,,,
0.6981,response_1,shortFoil,VILLAGE,CANDLELIGHT,,,,,,BRAINSTORM,GREEN NEEDLE,long,resources/sound/trials/audio_stim_original.mp3,60fdb5f42a9cde17ef4958f2,18,Female,Right handed,2021-07-26_14h36.44.102,MA Experiment 2,2021.1.2,Win32,59.95922773,3,5,107,33,1,,,,,
0.663,response_2,shortFoil,TEMPLE,HURRICANE,,,,,,RECEIPT,LIMOUSINE,long,resources/sound/trials/audio_stim_comp40.mp3,60fdb5f42a9cde17ef4958f2,18,Female,Right handed,2021-07-26_14h36.44.102,MA Experiment 2,2021.1.2,Win32,59.95922773,3,6,108,19,1,,,,,
0.9984,response_1,,SEGMENT,TEMPERATURE,,,,,,VIOLET,LUBRICANT,short,resources/sound/catchTrials/audio_control_comp_project07.mp3,60fdb5f42a9cde17ef4958f2,18,Female,Right handed,2021-07-26_14h36.44.102,MA Experiment 2,2021.1.2,Win32,59.95922773,,,,,,0,5,5,3,1
0.7656,response_1,shortValid,MISTRESS,CROCODILE,,,,,,WORKER,VISITOR,short,resources/sound/trials/audio_stim_comp17.mp3,60fdb5f42a9cde17ef4958f2,18,Female,Right handed,2021-07-26_14h36.44.102,MA Experiment 2,2021.1.2,Win32,59.95922773,3,7,109,6,1,,,,,
1.3817,response_2,longValid,HARBOUR,ATTENDANT,,,,,,RUBBER,PROPERTY,long,resources/sound/trials/audio_stim_human0.mp3,60fdb5f42a9cde17ef4958f2,18,Female,Right handed,2021-07-26_14h36.44.102,MA Experiment 2,2021.1.2,Win32,59.95922773,3,8,110,29,1,,,,,
1.2651,response_1,longFoil,PICTURE,RETAILER,,,,,,HARDWARE,OVERCOAT,short,resources/sound/trials/audio_stim_human35.mp3,60fdb5f42a9cde17ef4958f2,18,Female,Right handed,2021-07-26_14h36.44.102,MA Experiment 2,2021.1.2,Win32,59.95922773,3,9,111,8,1,,,,,
0.6818,response_1,shortValid,CANTEEN,INJURY,,,,,,DAYLIGHT,MATERIAL,long,resources/sound/trials/audio_stim_human42.mp3,60fdb5f42a9cde17ef4958f2,18,Female,Right handed,2021-07-26_14h36.44.102,MA Experiment 2,2021.1.2,Win32,59.95922773,3,10,112,26,1,,,,,
1.0322,response_2,,WIRE,HOSPITAL,,,,,,BORDER,ALGEBRA,long,resources/sound/catchTrials/audio_control_comp_project00.mp3,60fdb5f42a9cde17ef4958f2,18,Female,Right handed,2021-07-26_14h36.44.102,MA Experiment 2,2021.1.2,Win32,59.95922773,,,,,,0,7,7,16,1
0.8814,response_1,shortValid,DOORWAY,BEVERAGE,,,,,,MINER,EMERALD,long,resources/sound/trials/audio_stim_comp6.mp3,60fdb5f42a9cde17ef4958f2,18,Female,Right handed,2021-07-26_14h36.44.102,MA Experiment 2,2021.1.2,Win32,59.95922773,3,11,113,18,1,,,,,
1.2484,response_2,shortValid,TWEEZER,STRAWBERRY,,,,,,DRIZZLE,CARDINAL,long,resources/sound/trials/audio_stim_comp69.mp3,60fdb5f42a9cde17ef4958f2,18,Female,Right handed,2021-07-26_14h36.44.102,MA Experiment 2,2021.1.2,Win32,59.95922773,3,12,114,17,1,,,,,
1.351,response_1,longFoil,WAFER,CHOCOLATE,,,,,,MINER,EMERALD,long,resources/sound/trials/audio_stim_human6.mp3,60fdb5f42a9cde17ef4958f2,18,Female,Right handed,2021-07-26_14h36.44.102,MA Experiment 2,2021.1.2,Win32,59.95922773,3,13,115,30,1,,,,,
1.2818,response_1,shortValid,MEASLES,CABINET,,,,,,WORKER,VISITOR,long,resources/sound/trials/audio_stim_comp17.mp3,60fdb5f42a9cde17ef4958f2,18,Female,Right handed,2021-07-26_14h36.44.102,MA Experiment 2,2021.1.2,Win32,59.95922773,3,14,116,23,1,,,,,
1.2817,response_2,,RABBI,PHYSICIAN,,,,,,IRIS,VIOLIN,long,resources/sound/catchTrials/audio_control_human_project12.mp3,60fdb5f42a9cde17ef4958f2,18,Female,Right handed,2021-07-26_14h36.44.102,MA Experiment 2,2021.1.2,Win32,59.95922773,,,,,,0,9,9,24,1
1.6312,response_2,longFoil,TORTURE,GYMNASTICS,,,,,,ATHLETE,IVORY,short,resources/sound/trials/audio_stim_comp57.mp3,60fdb5f42a9cde17ef4958f2,18,Female,Right handed,2021-07-26_14h36.44.102,MA Experiment 2,2021.1.2,Win32,59.95922773,3,15,117,5,1,,,,,
0.7963,response_2,longFoil,NAPKIN,TANGERINE,,,,,,CONCRETE,ENEMY,short,resources/sound/trials/audio_stim_human67.mp3,60fdb5f42a9cde17ef4958f2,18,Female,Right handed,2021-07-26_14h36.44.102,MA Experiment 2,2021.1.2,Win32,59.95922773,3,16,118,10,1,,,,,
1.0148,response_1,shortFoil,DIAL,INFECTION,,,,,,PARTY,SANCTUARY,short,resources/sound/trials/audio_stim_human50.mp3,60fdb5f42a9cde17ef4958f2,18,Female,Right handed,2021-07-26_14h36.44.102,MA Experiment 2,2021.1.2,Win32,59.95922773,3,17,119,14,1,,,,,
0.8323,response_2,shortValid,MURAL,FACTORY,,,,,,ROBBER,RATTLESNAKE,short,resources/sound/trials/audio_stim_human64.mp3,60fdb5f42a9cde17ef4958f2,18,Female,Right handed,2021-07-26_14h36.44.102,MA Experiment 2,2021.1.2,Win32,59.95922773,3,18,120,15,1,,,,,
0.8483,response_2,,OLIVE,HEROIN,,,,,,JOURNAL,ROBBERY,long,resources/sound/catchTrials/audio_control_human_project02.mp3,60fdb5f42a9cde17ef4958f2,18,Female,Right handed,2021-07-26_14h36.44.102,MA Experiment 2,2021.1.2,Win32,59.95922773,,,,,,0,20,20,29,1
1.2479,response_1,longFoil,VAPOUR,HANDKERCHIEF,,,,,,SACRED,GALAXY,long,resources/sound/trials/audio_stim_comp1.mp3,60fdb5f42a9cde17ef4958f2,18,Female,Right handed,2021-07-26_14h36.44.102,MA Experiment 2,2021.1.2,Win32,59.95922773,3,19,121,24,1,,,,,
1.2153,response_1,shortValid,JURY,ENAMEL,,,,,,HARDWARE,OVERCOAT,long,resources/sound/trials/audio_stim_human35.mp3,60fdb5f42a9cde17ef4958f2,18,Female,Right handed,2021-07-26_14h36.44.102,MA Experiment 2,2021.1.2,Win32,59.95922773,3,20,122,25,1,,,,,
1.2496,response_1,shortValid,BUTTER,SAXOPHONE,,,,,,MINER,EMERALD,short,resources/sound/trials/audio_stim_human6.mp3,60fdb5f42a9cde17ef4958f2,18,Female,Right handed,2021-07-26_14h36.44.102,MA Experiment 2,2021.1.2,Win32,59.95922773,3,21,123,13,1,,,,,
0.8492,response_2,longFoil,WALRUS,INSTITUTE,,,,,,SACRED,GALAXY,short,resources/sound/trials/audio_stim_comp1.mp3,60fdb5f42a9cde17ef4958f2,18,Female,Right handed,2021-07-26_14h36.44.102,MA Experiment 2,2021.1.2,Win32,59.95922773,3,22,124,7,1,,,,,
1.132,response_1,,EARTHWORM,CONVENTION,,,,,,JUGGLER,DANDELION,short,resources/sound/catchTrials/audio_control_human_project09.mp3,60fdb5f42a9cde17ef4958f2,18,Female,Right handed,2021-07-26_14h36.44.102,MA Experiment 2,2021.1.2,Win32,59.95922773,,,,,,0,14,14,15,1
0.8151,response_1,shortFoil,SINGER,GINGERBREAD,,,,,,WHISTLE,TREASURER,long,resources/sound/trials/audio_stim_comp12.mp3,60fdb5f42a9cde17ef4958f2,18,Female,Right handed,2021-07-26_14h36.44.102,MA Experiment 2,2021.1.2,Win32,59.95922773,3,23,125,20,1,,,,,
0.7649,response_1,longFoil,CHIPMUNK,INDUSTRY,,,,,,PARTY,SANCTUARY,long,resources/sound/trials/audio_stim_human50.mp3,60fdb5f42a9cde17ef4958f2,18,Female,Right handed,2021-07-26_14h36.44.102,MA Experiment 2,2021.1.2,Win32,59.95922773,3,24,126,31,1,,,,,
1.0314,response_2,longValid,EVENING,MONUMENT,,,,,,BRAINSTORM,GREEN NEEDLE,short,resources/sound/trials/audio_stim_original.mp3,60fdb5f42a9cde17ef4958f2,18,Female,Right handed,2021-07-26_14h36.44.102,MA Experiment 2,2021.1.2,Win32,59.95922773,3,25,127,16,1,,,,,
0.9182,response_2,longFoil,DWELLER,ATHLETICS,,,,,,ROBBER,RATTLESNAKE,long,resources/sound/trials/audio_stim_human64.mp3,60fdb5f42a9cde17ef4958f2,18,Female,Right handed,2021-07-26_14h36.44.102,MA Experiment 2,2021.1.2,Win32,59.95922773,3,26,128,32,1,,,,,
1.012,response_2,,DANCER,ADMIRAL,,,,,,ICY,JITTERBUG,short,resources/sound/catchTrials/audio_control_comp_project08.mp3,60fdb5f42a9cde17ef4958f2,18,Female,Right handed,2021-07-26_14h36.44.102,MA Experiment 2,2021.1.2,Win32,59.95922773,,,,,,0,2,2,7,1
1.7817,response_2,longFoil,GIRDLE,INSTRUMENT,,,,,,DAYLIGHT,MATERIAL,short,resources/sound/trials/audio_stim_human42.mp3,60fdb5f42a9cde17ef4958f2,18,Female,Right handed,2021-07-26_14h36.44.102,MA Experiment 2,2021.1.2,Win32,59.95922773,3,27,129,9,1,,,,,
1.1317,response_1,shortValid,HURDLE,ALPHABET,,,,,,WHISTLE,TREASURER,short,resources/sound/trials/audio_stim_comp12.mp3,60fdb5f42a9cde17ef4958f2,18,Female,Right handed,2021-07-26_14h36.44.102,MA Experiment 2,2021.1.2,Win32,59.95922773,3,28,130,3,1,,,,,
1.3316,response_2,shortFoil,FEVER,DESTROYER,,,,,,CONCRETE,ENEMY,long,resources/sound/trials/audio_stim_human67.mp3,60fdb5f42a9cde17ef4958f2,18,Female,Right handed,2021-07-26_14h36.44.102,MA Experiment 2,2021.1.2,Win32,59.95922773,3,29,131,27,1,,,,,
0.8143,response_1,shortFoil,TRAITOR,CITIZEN,,,,,,MINER,EMERALD,short,resources/sound/trials/audio_stim_comp6.mp3,60fdb5f42a9cde17ef4958f2,18,Female,Right handed,2021-07-26_14h36.44.102,MA Experiment 2,2021.1.2,Win32,59.95922773,3,30,132,1,1,,,,,
1.0646,response_1,,ANCHOR,REFEREE,,,,,,VIOLET,LUBRICANT,short,resources/sound/catchTrials/audio_control_human_project07.mp3,60fdb5f42a9cde17ef4958f2,18,Female,Right handed,2021-07-26_14h36.44.102,MA Experiment 2,2021.1.2,Win32,59.95922773,,,,,,0,13,13,12,1
1.5977,response_1,shortFoil,BURNER,SPECIALIST,,,,,,PAINTER,VEHICLE,short,resources/sound/trials/audio_stim_human47.mp3,60fdb5f42a9cde17ef4958f2,18,Female,Right handed,2021-07-26_14h36.44.102,MA Experiment 2,2021.1.2,Win32,59.95922773,3,31,133,11,1,,,,,
1.2317,response_2,longValid,LIQUID,NEWSPAPER,,,,,,RECEIPT,LIMOUSINE,short,resources/sound/trials/audio_stim_comp40.mp3,60fdb5f42a9cde17ef4958f2,18,Female,Right handed,2021-07-26_14h36.44.102,MA Experiment 2,2021.1.2,Win32,59.95922773,3,32,134,2,1,,,,,
0.6978,response_1,shortValid,LEADER,MICROSCOPE,,,,,,ATHLETE,IVORY,long,resources/sound/trials/audio_stim_comp57.mp3,60fdb5f42a9cde17ef4958f2,18,Female,Right handed,2021-07-26_14h36.44.102,MA Experiment 2,2021.1.2,Win32,59.95922773,3,33,135,22,1,,,,,
