response.time,response,cueTarget,rand_foil_1,rand_foil_2,prac_trials.thisRepN,prac_trials.thisTrialN,prac_trials.thisN,prac_trials.thisIndex,prac_trials.ran,word_1,word_2,cue,file_path,participant,age,gender,handedness,date,expName,psychopyVersion,OS,frameRate,trials.thisRepN,trials.thisTrialN,trials.thisN,trials.thisIndex,trials.ran,catchTrials.thisRepN,catchTrials.thisTrialN,catchTrials.thisN,catchTrials.thisIndex,catchTrials.ran
,,longValid,SOFA,VINEGAR,0,0,0,6,1,VACANT,SALVATION,long,resources/sound/prac_trials/practice_cue6.mp3,60fef1ffa5ae99797bc2e659,27,Male,Left handed,2021-07-26_20h50.11.326,MA Experiment 2,2021.1.2,MacIntel,60.0024001,,,,,,,,,,
,,shortValid,MISTRESS,CROCODILE,0,1,1,9,1,GRUMPY,LABYRINTH,long,resources/sound/prac_trials/practice_cue_human9.mp3,60fef1ffa5ae99797bc2e659,27,Male,Left handed,2021-07-26_20h50.11.326,MA Experiment 2,2021.1.2,MacIntel,60.0024001,,,,,,,,,,
0.6769,response_2,shortValid,PRINCESS,INSTRUCTOR,0,2,2,4,1,FIZZY,ELECTRIC,short,resources/sound/prac_trials/practice_cue4.mp3,60fef1ffa5ae99797bc2e659,27,Male,Left handed,2021-07-26_20h50.11.326,MA Experiment 2,2021.1.2,MacIntel,60.0024001,,,,,,,,,,
1.3454,response_2,shortValid,NEIGHBOUR,FURNITURE,0,3,3,8,1,DAGGER,EMPHASIS,long,resources/sound/prac_trials/practice_cue8.mp3,60fef1ffa5ae99797bc2e659,27,Male,Left handed,2021-07-26_20h50.11.326,MA Experiment 2,2021.1.2,MacIntel,60.0024001,,,,,,,,,,
1.845,response_2,longValid,LOBSTER,MOSQUITO,0,4,4,2,1,RECENT,TOBACCO,short,resources/sound/prac_trials/practice_cue2.mp3,60fef1ffa5ae99797bc2e659,27,Male,Left handed,2021-07-26_20h50.11.326,MA Experiment 2,2021.1.2,MacIntel,60.0024001,,,,,,,,,,
1.0562,response_1,shortFoil,INCOME,PROJECTOR,0,5,5,10,1,SAFFRON,JAVELIN,long,resources/sound/prac_trials/practice_cue10.mp3,60fef1ffa5ae99797bc2e659,27,Male,Left handed,2021-07-26_20h50.11.326,MA Experiment 2,2021.1.2,MacIntel,60.0024001,,,,,,,,,,
2.7239,response_2,shortValid,RUSTY,CINNAMON,0,6,6,11,1,KETCHUP,GONDOLA,long,resources/sound/prac_trials/practice_cue_human11.mp3,60fef1ffa5ae99797bc2e659,27,Male,Left handed,2021-07-26_20h50.11.326,MA Experiment 2,2021.1.2,MacIntel,60.0024001,,,,,,,,,,
1.0772,response_2,longFoil,PODIUM,ATTENDANT,0,7,7,3,1,EAGER,QUALIFY,short,resources/sound/prac_trials/practice_cue_human3.mp3,60fef1ffa5ae99797bc2e659,27,Male,Left handed,2021-07-26_20h50.11.326,MA Experiment 2,2021.1.2,MacIntel,60.0024001,,,,,,,,,,
1.8586,response_2,longValid,HAMSTER,MOLECULE,0,8,8,1,1,CABLE,REPUBLIC,short,resources/sound/prac_trials/practice_cue_human1.mp3,60fef1ffa5ae99797bc2e659,27,Male,Left handed,2021-07-26_20h50.11.326,MA Experiment 2,2021.1.2,MacIntel,60.0024001,,,,,,,,,,
1.0765,response_1,longValid,CANTEEN,POLIO,0,9,9,0,1,AARDVARK,FALLACY,short,resources/sound/prac_trials/practice_cue0.mp3,60fef1ffa5ae99797bc2e659,27,Male,Left handed,2021-07-26_20h50.11.326,MA Experiment 2,2021.1.2,MacIntel,60.0024001,,,,,,,,,,
1.2947,response_2,longValid,SADDLE,ANTIQUE,0,10,10,5,1,NONSENSE,OASIS,short,resources/sound/prac_trials/practice_cue_human5.mp3,60fef1ffa5ae99797bc2e659,27,Male,Left handed,2021-07-26_20h50.11.326,MA Experiment 2,2021.1.2,MacIntel,60.0024001,,,,,,,,,,
1.5594,response_2,longFoil,SINGER,HEADQUARTERS,0,11,11,7,1,BUCKLE,WALLABY,long,resources/sound/prac_trials/practice_cue_human7.mp3,60fef1ffa5ae99797bc2e659,27,Male,Left handed,2021-07-26_20h50.11.326,MA Experiment 2,2021.1.2,MacIntel,60.0024001,,,,,,,,,,
1.0429,response_2,shortFoil,MURDER,NEIGHBOURHOOD,,,,,,WORKER,VISITOR,long,resources/sound/trials/audio_stim_comp17.mp3,60fef1ffa5ae99797bc2e659,27,Male,Left handed,2021-07-26_20h50.11.326,MA Experiment 2,2021.1.2,MacIntel,60.0024001,0,0,0,23,1,,,,,
2.3425,response_2,shortFoil,FERTILE,CAMERA,,,,,,BRAINSTORM,GREEN NEEDLE,short,resources/sound/trials/audio_stim_original.mp3,60fef1ffa5ae99797bc2e659,27,Male,Left handed,2021-07-26_20h50.11.326,MA Experiment 2,2021.1.2,MacIntel,60.0024001,0,1,1,16,1,,,,,
1.1764,response_2,shortFoil,STOCKING,INTERVIEW,,,,,,PARTY,SANCTUARY,short,resources/sound/trials/audio_stim_human50.mp3,60fef1ffa5ae99797bc2e659,27,Male,Left handed,2021-07-26_20h50.11.326,MA Experiment 2,2021.1.2,MacIntel,60.0024001,0,2,2,14,1,,,,,
1.8459,response_1,,EVENING,BUTTERFLY,,,,,,POISON,REVOLVER,short,resources/sound/catchTrials/audio_control_human_project01.mp3,60fef1ffa5ae99797bc2e659,27,Male,Left handed,2021-07-26_20h50.11.326,MA Experiment 2,2021.1.2,MacIntel,60.0024001,,,,,,0,20,20,9,1
1.9768,response_1,longValid,FEVER,APPLIANCE,,,,,,SACRED,GALAXY,short,resources/sound/trials/audio_stim_comp1.mp3,60fef1ffa5ae99797bc2e659,27,Male,Left handed,2021-07-26_20h50.11.326,MA Experiment 2,2021.1.2,MacIntel,60.0024001,0,3,3,7,1,,,,,
1.9599,response_2,shortValid,WRITING,TEMPERATURE,,,,,,DAYLIGHT,MATERIAL,long,resources/sound/trials/audio_stim_human42.mp3,60fef1ffa5ae99797bc2e659,27,Male,Left handed,2021-07-26_20h50.11.326,MA Experiment 2,2021.1.2,MacIntel,60.0024001,0,4,4,26,1,,,,,
2.1085,response_2,shortValid,MUSCLE,HOSPITAL,,,,,,WHISTLE,TREASURER,short,resources/sound/trials/audio_stim_comp12.mp3,60fef1ffa5ae99797bc2e659,27,Male,Left handed,2021-07-26_20h50.11.326,MA Experiment 2,2021.1.2,MacIntel,60.0024001,0,5,5,3,1,,,,,
1.4974,response_2,shortFoil,CABIN,UMBRELLA,,,,,,PARTY,SANCTUARY,long,resources/sound/trials/audio_stim_human50.mp3,60fef1ffa5ae99797bc2e659,27,Male,Left handed,2021-07-26_20h50.11.326,MA Experiment 2,2021.1.2,MacIntel,60.0024001,0,6,6,31,1,,,,,
1.5751,response_2,,NURSERY,PROPELLER,,,,,,ICY,JITTERBUG,long,resources/sound/catchTrials/audio_control_comp_project08.mp3,60fef1ffa5ae99797bc2e659,27,Male,Left handed,2021-07-26_20h50.11.326,MA Experiment 2,2021.1.2,MacIntel,60.0024001,,,,,,0,10,10,23,1
1.9923,response_1,shortFoil,SHOULDER,ABDOMEN,,,,,,DRIZZLE,CARDINAL,short,resources/sound/trials/audio_stim_comp69.mp3,60fef1ffa5ae99797bc2e659,27,Male,Left handed,2021-07-26_20h50.11.326,MA Experiment 2,2021.1.2,MacIntel,60.0024001,0,7,7,0,1,,,,,
1.4595,response_1,shortFoil,OFFICE,DISSECTION,,,,,,WHISTLE,TREASURER,long,resources/sound/trials/audio_stim_comp12.mp3,60fef1ffa5ae99797bc2e659,27,Male,Left handed,2021-07-26_20h50.11.326,MA Experiment 2,2021.1.2,MacIntel,60.0024001,0,8,8,20,1,,,,,
1.8269,response_1,shortFoil,CRYSTAL,LEMONADE,,,,,,PAINTER,VEHICLE,short,resources/sound/trials/audio_stim_human47.mp3,60fef1ffa5ae99797bc2e659,27,Male,Left handed,2021-07-26_20h50.11.326,MA Experiment 2,2021.1.2,MacIntel,60.0024001,0,9,9,11,1,,,,,
2.0811,response_2,shortFoil,FATHER,ICICLE,,,,,,PAINTER,VEHICLE,long,resources/sound/trials/audio_stim_human47.mp3,60fef1ffa5ae99797bc2e659,27,Male,Left handed,2021-07-26_20h50.11.326,MA Experiment 2,2021.1.2,MacIntel,60.0024001,0,10,10,28,1,,,,,
0.9427,response_1,,MEDICINE,ACROBAT,,,,,,VIOLET,LUBRICANT,long,resources/sound/catchTrials/audio_control_human_project07.mp3,60fef1ffa5ae99797bc2e659,27,Male,Left handed,2021-07-26_20h50.11.326,MA Experiment 2,2021.1.2,MacIntel,60.0024001,,,,,,0,16,16,28,1
1.4442,response_2,longValid,NOVEL,ASBESTOS,,,,,,RUBBER,PROPERTY,long,resources/sound/trials/audio_stim_human0.mp3,60fef1ffa5ae99797bc2e659,27,Male,Left handed,2021-07-26_20h50.11.326,MA Experiment 2,2021.1.2,MacIntel,60.0024001,0,11,11,29,1,,,,,
1.5636,response_1,shortValid,BURNER,GRASSHOPPER,,,,,,DAYLIGHT,MATERIAL,short,resources/sound/trials/audio_stim_human42.mp3,60fef1ffa5ae99797bc2e659,27,Male,Left handed,2021-07-26_20h50.11.326,MA Experiment 2,2021.1.2,MacIntel,60.0024001,0,12,12,9,1,,,,,
1.2442,response_2,shortFoil,POLO,ENAMEL,,,,,,SACRED,GALAXY,long,resources/sound/trials/audio_stim_comp1.mp3,60fef1ffa5ae99797bc2e659,27,Male,Left handed,2021-07-26_20h50.11.326,MA Experiment 2,2021.1.2,MacIntel,60.0024001,0,13,13,24,1,,,,,
1.9109,response_2,longFoil,JURY,SPECIALIST,,,,,,CONCRETE,ENEMY,long,resources/sound/trials/audio_stim_human67.mp3,60fef1ffa5ae99797bc2e659,27,Male,Left handed,2021-07-26_20h50.11.326,MA Experiment 2,2021.1.2,MacIntel,60.0024001,0,14,14,27,1,,,,,
1.4082,response_1,,GRADUATE,GINGERBREAD,,,,,,JUGGLER,DANDELION,long,resources/sound/catchTrials/audio_control_human_project09.mp3,60fef1ffa5ae99797bc2e659,27,Male,Left handed,2021-07-26_20h50.11.326,MA Experiment 2,2021.1.2,MacIntel,60.0024001,,,,,,0,3,3,31,1
1.4436,response_2,longFoil,WAFER,CATHEDRAL,,,,,,MINER,EMERALD,short,resources/sound/trials/audio_stim_comp6.mp3,60fef1ffa5ae99797bc2e659,27,Male,Left handed,2021-07-26_20h50.11.326,MA Experiment 2,2021.1.2,MacIntel,60.0024001,0,15,15,1,1,,,,,
1.6608,response_2,shortValid,GIRDLE,MERCURY,,,,,,WORKER,VISITOR,short,resources/sound/trials/audio_stim_comp17.mp3,60fef1ffa5ae99797bc2e659,27,Male,Left handed,2021-07-26_20h50.11.326,MA Experiment 2,2021.1.2,MacIntel,60.0024001,0,16,16,6,1,,,,,
0.7111,response_2,longValid,MORNING,PHYSICIAN,,,,,,MINER,EMERALD,short,resources/sound/trials/audio_stim_human6.mp3,60fef1ffa5ae99797bc2e659,27,Male,Left handed,2021-07-26_20h50.11.326,MA Experiment 2,2021.1.2,MacIntel,60.0024001,0,17,17,13,1,,,,,
2.4581,response_2,shortFoil,ANCHOR,POLICEMAN,,,,,,RUBBER,PROPERTY,short,resources/sound/trials/audio_stim_human0.mp3,60fef1ffa5ae99797bc2e659,27,Male,Left handed,2021-07-26_20h50.11.326,MA Experiment 2,2021.1.2,MacIntel,60.0024001,0,18,18,12,1,,,,,
0.8617,response_1,,EARTHWORM,CARNATION,,,,,,JUGGLER,DANDELION,short,resources/sound/catchTrials/audio_control_human_project09.mp3,60fef1ffa5ae99797bc2e659,27,Male,Left handed,2021-07-26_20h50.11.326,MA Experiment 2,2021.1.2,MacIntel,60.0024001,,,,,,0,1,1,15,1
0.7783,response_2,shortValid,BISHOP,PHOTOGRAPH,,,,,,MINER,EMERALD,long,resources/sound/trials/audio_stim_human6.mp3,60fef1ffa5ae99797bc2e659,27,Male,Left handed,2021-07-26_20h50.11.326,MA Experiment 2,2021.1.2,MacIntel,60.0024001,0,19,19,30,1,,,,,
0.6791,response_1,longFoil,HURDLE,GOVERNMENT,,,,,,CONCRETE,ENEMY,short,resources/sound/trials/audio_stim_human67.mp3,60fef1ffa5ae99797bc2e659,27,Male,Left handed,2021-07-26_20h50.11.326,MA Experiment 2,2021.1.2,MacIntel,60.0024001,0,20,20,10,1,,,,,
1.5465,response_2,longFoil,PATIENT,POTATO,,,,,,ROBBER,RATTLESNAKE,long,resources/sound/trials/audio_stim_human64.mp3,60fef1ffa5ae99797bc2e659,27,Male,Left handed,2021-07-26_20h50.11.326,MA Experiment 2,2021.1.2,MacIntel,60.0024001,0,21,21,32,1,,,,,
2.0482,response_2,shortFoil,VESSEL,DIAMOND,,,,,,RECEIPT,LIMOUSINE,long,resources/sound/trials/audio_stim_comp40.mp3,60fef1ffa5ae99797bc2e659,27,Male,Left handed,2021-07-26_20h50.11.326,MA Experiment 2,2021.1.2,MacIntel,60.0024001,0,22,22,19,1,,,,,
1.3603,response_2,,CAPTAIN,HURRICANE,,,,,,CORNER,ENGINEER,long,resources/sound/catchTrials/audio_control_comp_project14.mp3,60fef1ffa5ae99797bc2e659,27,Male,Left handed,2021-07-26_20h50.11.326,MA Experiment 2,2021.1.2,MacIntel,60.0024001,,,,,,0,0,0,17,1
1.5914,response_1,shortFoil,NECKLACE,FIREWOOD,,,,,,ATHLETE,IVORY,long,resources/sound/trials/audio_stim_comp57.mp3,60fef1ffa5ae99797bc2e659,27,Male,Left handed,2021-07-26_20h50.11.326,MA Experiment 2,2021.1.2,MacIntel,60.0024001,0,23,23,22,1,,,,,
1.0221,response_2,shortFoil,WINDOW,AMMONIA,,,,,,RECEIPT,LIMOUSINE,short,resources/sound/trials/audio_stim_comp40.mp3,60fef1ffa5ae99797bc2e659,27,Male,Left handed,2021-07-26_20h50.11.326,MA Experiment 2,2021.1.2,MacIntel,60.0024001,0,24,24,2,1,,,,,
1.4437,response_1,longFoil,TEMPLE,INFECTION,,,,,,MARBLE,CUSTOMER,long,resources/sound/trials/audio_stim_comp65.mp3,60fef1ffa5ae99797bc2e659,27,Male,Left handed,2021-07-26_20h50.11.326,MA Experiment 2,2021.1.2,MacIntel,60.0024001,0,25,25,21,1,,,,,
2.3161,response_2,shortFoil,SCOOTER,LECTURER,,,,,,DRIZZLE,CARDINAL,long,resources/sound/trials/audio_stim_comp69.mp3,60fef1ffa5ae99797bc2e659,27,Male,Left handed,2021-07-26_20h50.11.326,MA Experiment 2,2021.1.2,MacIntel,60.0024001,0,26,26,17,1,,,,,
1.0623,response_2,,BERRY,HONEYMOON,,,,,,IRIS,VIOLIN,short,resources/sound/catchTrials/audio_control_human_project12.mp3,60fef1ffa5ae99797bc2e659,27,Male,Left handed,2021-07-26_20h50.11.326,MA Experiment 2,2021.1.2,MacIntel,60.0024001,,,,,,0,24,24,8,1
1.1616,response_1,longFoil,STATION,GALLERY,,,,,,MARBLE,CUSTOMER,short,resources/sound/trials/audio_stim_comp65.mp3,60fef1ffa5ae99797bc2e659,27,Male,Left handed,2021-07-26_20h50.11.326,MA Experiment 2,2021.1.2,MacIntel,60.0024001,0,27,27,4,1,,,,,
1.7446,response_2,shortFoil,FAIRY,CLARINET,,,,,,HARDWARE,OVERCOAT,long,resources/sound/trials/audio_stim_human35.mp3,60fef1ffa5ae99797bc2e659,27,Male,Left handed,2021-07-26_20h50.11.326,MA Experiment 2,2021.1.2,MacIntel,60.0024001,0,28,28,25,1,,,,,
1.1449,response_2,longValid,LIQUID,AMBULANCE,,,,,,ROBBER,RATTLESNAKE,short,resources/sound/trials/audio_stim_human64.mp3,60fef1ffa5ae99797bc2e659,27,Male,Left handed,2021-07-26_20h50.11.326,MA Experiment 2,2021.1.2,MacIntel,60.0024001,0,29,29,15,1,,,,,
1.5941,response_2,shortFoil,TWEEZER,OPENING,,,,,,BRAINSTORM,GREEN NEEDLE,long,resources/sound/trials/audio_stim_original.mp3,60fef1ffa5ae99797bc2e659,27,Male,Left handed,2021-07-26_20h50.11.326,MA Experiment 2,2021.1.2,MacIntel,60.0024001,0,30,30,33,1,,,,,
1.1561,response_2,,PICTURE,INSTRUMENT,,,,,,HOBBY,COLONY,long,resources/sound/catchTrials/audio_control_comp_project04.mp3,60fef1ffa5ae99797bc2e659,27,Male,Left handed,2021-07-26_20h50.11.326,MA Experiment 2,2021.1.2,MacIntel,60.0024001,,,,,,0,28,28,18,1
1.3233,response_2,longFoil,BEETLE,CIGARETTE,,,,,,HARDWARE,OVERCOAT,short,resources/sound/trials/audio_stim_human35.mp3,60fef1ffa5ae99797bc2e659,27,Male,Left handed,2021-07-26_20h50.11.326,MA Experiment 2,2021.1.2,MacIntel,60.0024001,0,31,31,8,1,,,,,
0.9617,response_2,shortValid,RABBI,MECHANIC,,,,,,MINER,EMERALD,long,resources/sound/trials/audio_stim_comp6.mp3,60fef1ffa5ae99797bc2e659,27,Male,Left handed,2021-07-26_20h50.11.326,MA Experiment 2,2021.1.2,MacIntel,60.0024001,0,32,32,18,1,,,,,
1.5769,response_1,longValid,UNCLE,SETTLEMENT,,,,,,ATHLETE,IVORY,short,resources/sound/trials/audio_stim_comp57.mp3,60fef1ffa5ae99797bc2e659,27,Male,Left handed,2021-07-26_20h50.11.326,MA Experiment 2,2021.1.2,MacIntel,60.0024001,0,33,33,5,1,,,,,
1.014,response_2,shortValid,PIANO,INDUSTRY,,,,,,RUBBER,PROPERTY,long,resources/sound/trials/audio_stim_human0.mp3,60fef1ffa5ae99797bc2e659,27,Male,Left handed,2021-07-26_20h50.11.326,MA Experiment 2,2021.1.2,MacIntel,60.0024001,1,0,34,29,1,,,,,
1.01,response_2,longValid,DIVING,ATHLETICS,,,,,,WORKER,VISITOR,short,resources/sound/trials/audio_stim_comp17.mp3,60fef1ffa5ae99797bc2e659,27,Male,Left handed,2021-07-26_20h50.11.326,MA Experiment 2,2021.1.2,MacIntel,60.0024001,1,1,35,6,1,,,,,
1.6451,response_2,shortValid,SHEEPSKIN,AVENUE,,,,,,BRAINSTORM,GREEN NEEDLE,long,resources/sound/trials/audio_stim_original.mp3,60fef1ffa5ae99797bc2e659,27,Male,Left handed,2021-07-26_20h50.11.326,MA Experiment 2,2021.1.2,MacIntel,60.0024001,1,2,36,33,1,,,,,
1.1603,response_2,,SULPHUR,ENVELOPE,,,,,,CORNER,ENGINEER,short,resources/sound/catchTrials/audio_control_human_project14.mp3,60fef1ffa5ae99797bc2e659,27,Male,Left handed,2021-07-26_20h50.11.326,MA Experiment 2,2021.1.2,MacIntel,60.0024001,,,,,,0,26,26,10,1
1.4429,response_2,shortFoil,CEREAL,CITIZEN,,,,,,HARDWARE,OVERCOAT,short,resources/sound/trials/audio_stim_human35.mp3,60fef1ffa5ae99797bc2e659,27,Male,Left handed,2021-07-26_20h50.11.326,MA Experiment 2,2021.1.2,MacIntel,60.0024001,1,3,37,8,1,,,,,
2.0944,response_1,longValid,KETTLE,NEWSPAPER,,,,,,RECEIPT,LIMOUSINE,short,resources/sound/trials/audio_stim_comp40.mp3,60fef1ffa5ae99797bc2e659,27,Male,Left handed,2021-07-26_20h50.11.326,MA Experiment 2,2021.1.2,MacIntel,60.0024001,1,4,38,2,1,,,,,
1.8122,response_1,shortValid,LEADER,DESTROYER,,,,,,MARBLE,CUSTOMER,long,resources/sound/trials/audio_stim_comp65.mp3,60fef1ffa5ae99797bc2e659,27,Male,Left handed,2021-07-26_20h50.11.326,MA Experiment 2,2021.1.2,MacIntel,60.0024001,1,5,39,21,1,,,,,
1.0788,response_2,longFoil,CHIPMUNK,MONUMENT,,,,,,RUBBER,PROPERTY,short,resources/sound/trials/audio_stim_human0.mp3,60fef1ffa5ae99797bc2e659,27,Male,Left handed,2021-07-26_20h50.11.326,MA Experiment 2,2021.1.2,MacIntel,60.0024001,1,6,40,12,1,,,,,
1.228,response_2,,DIAL,ADMIRAL,,,,,,SPINACH,APRICOT,short,resources/sound/catchTrials/audio_control_comp_project18.mp3,60fef1ffa5ae99797bc2e659,27,Male,Left handed,2021-07-26_20h50.11.326,MA Experiment 2,2021.1.2,MacIntel,60.0024001,,,,,,0,25,25,5,1
0.7778,response_1,shortFoil,NATIVE,HEROIN,,,,,,CONCRETE,ENEMY,short,resources/sound/trials/audio_stim_human67.mp3,60fef1ffa5ae99797bc2e659,27,Male,Left handed,2021-07-26_20h50.11.326,MA Experiment 2,2021.1.2,MacIntel,60.0024001,1,7,41,10,1,,,,,
0.9231,response_2,shortValid,PERSON,ALCOHOL,,,,,,PARTY,SANCTUARY,short,resources/sound/trials/audio_stim_human50.mp3,60fef1ffa5ae99797bc2e659,27,Male,Left handed,2021-07-26_20h50.11.326,MA Experiment 2,2021.1.2,MacIntel,60.0024001,1,8,42,14,1,,,,,
1.312,response_2,longFoil,DUEL,BEVERAGE,,,,,,WHISTLE,TREASURER,long,resources/sound/trials/audio_stim_comp12.mp3,60fef1ffa5ae99797bc2e659,27,Male,Left handed,2021-07-26_20h50.11.326,MA Experiment 2,2021.1.2,MacIntel,60.0024001,1,9,43,20,1,,,,,
0.8784,response_2,longValid,MOONLIGHT,CABINET,,,,,,SACRED,GALAXY,long,resources/sound/trials/audio_stim_comp1.mp3,60fef1ffa5ae99797bc2e659,27,Male,Left handed,2021-07-26_20h50.11.326,MA Experiment 2,2021.1.2,MacIntel,60.0024001,1,10,44,24,1,,,,,
1.3443,response_2,,FOREARM,MINISTER,,,,,,BORDER,ALGEBRA,short,resources/sound/catchTrials/audio_control_comp_project00.mp3,60fef1ffa5ae99797bc2e659,27,Male,Left handed,2021-07-26_20h50.11.326,MA Experiment 2,2021.1.2,MacIntel,60.0024001,,,,,,0,31,31,0,1
2.0142,response_1,longFoil,WIRE,MESSENGER,,,,,,WHISTLE,TREASURER,short,resources/sound/trials/audio_stim_comp12.mp3,60fef1ffa5ae99797bc2e659,27,Male,Left handed,2021-07-26_20h50.11.326,MA Experiment 2,2021.1.2,MacIntel,60.0024001,1,11,45,3,1,,,,,
1.3897,response_2,longFoil,DWELLER,EMULSION,,,,,,BRAINSTORM,GREEN NEEDLE,short,resources/sound/trials/audio_stim_original.mp3,60fef1ffa5ae99797bc2e659,27,Male,Left handed,2021-07-26_20h50.11.326,MA Experiment 2,2021.1.2,MacIntel,60.0024001,1,12,46,16,1,,,,,
1.297,response_2,longValid,TUMBLE,CHOCOLATE,,,,,,MINER,EMERALD,long,resources/sound/trials/audio_stim_comp6.mp3,60fef1ffa5ae99797bc2e659,27,Male,Left handed,2021-07-26_20h50.11.326,MA Experiment 2,2021.1.2,MacIntel,60.0024001,1,13,47,18,1,,,,,
1.6322,response_2,longFoil,VALLEY,CANDLELIGHT,,,,,,DRIZZLE,CARDINAL,long,resources/sound/trials/audio_stim_comp69.mp3,60fef1ffa5ae99797bc2e659,27,Male,Left handed,2021-07-26_20h50.11.326,MA Experiment 2,2021.1.2,MacIntel,60.0024001,1,14,48,17,1,,,,,
1.4114,response_2,,HARBOUR,GORILLA,,,,,,NAVY,RECTANGLE,long,resources/sound/catchTrials/audio_control_comp_project06.mp3,60fef1ffa5ae99797bc2e659,27,Male,Left handed,2021-07-26_20h50.11.326,MA Experiment 2,2021.1.2,MacIntel,60.0024001,,,,,,0,15,15,22,1
1.2621,response_1,longFoil,BUTTER,RETAILER,,,,,,HARDWARE,OVERCOAT,long,resources/sound/trials/audio_stim_human35.mp3,60fef1ffa5ae99797bc2e659,27,Male,Left handed,2021-07-26_20h50.11.326,MA Experiment 2,2021.1.2,MacIntel,60.0024001,1,15,49,25,1,,,,,
1.1101,response_2,shortFoil,VAPOUR,INSTITUTE,,,,,,ROBBER,RATTLESNAKE,long,resources/sound/trials/audio_stim_human64.mp3,60fef1ffa5ae99797bc2e659,27,Male,Left handed,2021-07-26_20h50.11.326,MA Experiment 2,2021.1.2,MacIntel,60.0024001,1,16,50,32,1,,,,,
2.6293,response_2,longValid,SODA,GYMNASTICS,,,,,,PAINTER,VEHICLE,short,resources/sound/trials/audio_stim_human47.mp3,60fef1ffa5ae99797bc2e659,27,Male,Left handed,2021-07-26_20h50.11.326,MA Experiment 2,2021.1.2,MacIntel,60.0024001,1,17,51,11,1,,,,,
2.28,response_2,longValid,DECOY,TANGERINE,,,,,,PAINTER,VEHICLE,long,resources/sound/trials/audio_stim_human47.mp3,60fef1ffa5ae99797bc2e659,27,Male,Left handed,2021-07-26_20h50.11.326,MA Experiment 2,2021.1.2,MacIntel,60.0024001,1,18,52,28,1,,,,,
1.4974,response_2,,CURFEW,MICROSCOPE,,,,,,CORNER,ENGINEER,long,resources/sound/catchTrials/audio_control_human_project14.mp3,60fef1ffa5ae99797bc2e659,27,Male,Left handed,2021-07-26_20h50.11.326,MA Experiment 2,2021.1.2,MacIntel,60.0024001,,,,,,0,9,9,26,1
0.7277,response_2,shortFoil,SEGMENT,ORNAMENT,,,,,,MINER,EMERALD,short,resources/sound/trials/audio_stim_human6.mp3,60fef1ffa5ae99797bc2e659,27,Male,Left handed,2021-07-26_20h50.11.326,MA Experiment 2,2021.1.2,MacIntel,60.0024001,1,19,53,13,1,,,,,
2.3094,response_2,longFoil,MURAL,JANITOR,,,,,,SACRED,GALAXY,short,resources/sound/trials/audio_stim_comp1.mp3,60fef1ffa5ae99797bc2e659,27,Male,Left handed,2021-07-26_20h50.11.326,MA Experiment 2,2021.1.2,MacIntel,60.0024001,1,20,54,7,1,,,,,
0.9436,response_1,longValid,OLIVE,FAMILY,,,,,,MARBLE,CUSTOMER,short,resources/sound/trials/audio_stim_comp65.mp3,60fef1ffa5ae99797bc2e659,27,Male,Left handed,2021-07-26_20h50.11.326,MA Experiment 2,2021.1.2,MacIntel,60.0024001,1,21,55,4,1,,,,,
1.8781,response_1,shortValid,INVOICE,STRAWBERRY,,,,,,WORKER,VISITOR,long,resources/sound/trials/audio_stim_comp17.mp3,60fef1ffa5ae99797bc2e659,27,Male,Left handed,2021-07-26_20h50.11.326,MA Experiment 2,2021.1.2,MacIntel,60.0024001,1,22,56,23,1,,,,,
0.5094,response_1,,CIGAR,COMMITTEE,,,,,,POISON,REVOLVER,long,resources/sound/catchTrials/audio_control_human_project01.mp3,60fef1ffa5ae99797bc2e659,27,Male,Left handed,2021-07-26_20h50.11.326,MA Experiment 2,2021.1.2,MacIntel,60.0024001,,,,,,0,11,11,25,1
1.743,response_2,longFoil,PIPING,INJURY,,,,,,RECEIPT,LIMOUSINE,long,resources/sound/trials/audio_stim_comp40.mp3,60fef1ffa5ae99797bc2e659,27,Male,Left handed,2021-07-26_20h50.11.326,MA Experiment 2,2021.1.2,MacIntel,60.0024001,1,23,57,19,1,,,,,
1.7283,response_1,shortFoil,KENNEL,HANDKERCHIEF,,,,,,MINER,EMERALD,long,resources/sound/trials/audio_stim_human6.mp3,60fef1ffa5ae99797bc2e659,27,Male,Left handed,2021-07-26_20h50.11.326,MA Experiment 2,2021.1.2,MacIntel,60.0024001,1,24,58,30,1,,,,,
1.1141,response_1,shortValid,DANCER,CORRIDOR,,,,,,MINER,EMERALD,short,resources/sound/trials/audio_stim_comp6.mp3,60fef1ffa5ae99797bc2e659,27,Male,Left handed,2021-07-26_20h50.11.326,MA Experiment 2,2021.1.2,MacIntel,60.0024001,1,25,59,1,1,,,,,
0.6309,response_2,shortValid,ACRE,REFEREE,,,,,,ROBBER,RATTLESNAKE,short,resources/sound/trials/audio_stim_human64.mp3,60fef1ffa5ae99797bc2e659,27,Male,Left handed,2021-07-26_20h50.11.326,MA Experiment 2,2021.1.2,MacIntel,60.0024001,1,26,60,15,1,,,,,
1.161,response_2,,DOORWAY,OXYGEN,,,,,,HOBBY,COLONY,short,resources/sound/catchTrials/audio_control_comp_project04.mp3,60fef1ffa5ae99797bc2e659,27,Male,Left handed,2021-07-26_20h50.11.326,MA Experiment 2,2021.1.2,MacIntel,60.0024001,,,,,,0,5,5,2,1
1.6113,response_2,longFoil,VILLAGE,SAXOPHONE,,,,,,ATHLETE,IVORY,short,resources/sound/trials/audio_stim_comp57.mp3,60fef1ffa5ae99797bc2e659,27,Male,Left handed,2021-07-26_20h50.11.326,MA Experiment 2,2021.1.2,MacIntel,60.0024001,1,27,61,5,1,,,,,
0.8791,response_1,shortValid,HAMMER,FISHERMAN,,,,,,CONCRETE,ENEMY,long,resources/sound/trials/audio_stim_human67.mp3,60fef1ffa5ae99797bc2e659,27,Male,Left handed,2021-07-26_20h50.11.326,MA Experiment 2,2021.1.2,MacIntel,60.0024001,1,28,62,27,1,,,,,
2.1795,response_1,longFoil,MEASLES,MEDICINE,,,,,,DRIZZLE,CARDINAL,short,resources/sound/trials/audio_stim_comp69.mp3,60fef1ffa5ae99797bc2e659,27,Male,Left handed,2021-07-26_20h50.11.326,MA Experiment 2,2021.1.2,MacIntel,60.0024001,1,29,63,0,1,,,,,
1.5395,response_2,longValid,NAPKIN,PROFESSOR,,,,,,PARTY,SANCTUARY,long,resources/sound/trials/audio_stim_human50.mp3,60fef1ffa5ae99797bc2e659,27,Male,Left handed,2021-07-26_20h50.11.326,MA Experiment 2,2021.1.2,MacIntel,60.0024001,1,30,64,31,1,,,,,
0.9625,response_2,,LIGHTNING,CAPITAL,,,,,,CORNER,ENGINEER,short,resources/sound/catchTrials/audio_control_comp_project14.mp3,60fef1ffa5ae99797bc2e659,27,Male,Left handed,2021-07-26_20h50.11.326,MA Experiment 2,2021.1.2,MacIntel,60.0024001,,,,,,0,17,17,1,1
1.6111,response_1,longValid,TORTURE,MINERAL,,,,,,DAYLIGHT,MATERIAL,short,resources/sound/trials/audio_stim_human42.mp3,60fef1ffa5ae99797bc2e659,27,Male,Left handed,2021-07-26_20h50.11.326,MA Experiment 2,2021.1.2,MacIntel,60.0024001,1,31,65,9,1,,,,,
0.6289,response_1,longValid,TRAITOR,ALPHABET,,,,,,DAYLIGHT,MATERIAL,long,resources/sound/trials/audio_stim_human42.mp3,60fef1ffa5ae99797bc2e659,27,Male,Left handed,2021-07-26_20h50.11.326,MA Experiment 2,2021.1.2,MacIntel,60.0024001,1,32,66,26,1,,,,,
3.2601,response_2,longValid,WALRUS,CONVENTION,,,,,,ATHLETE,IVORY,long,resources/sound/trials/audio_stim_comp57.mp3,60fef1ffa5ae99797bc2e659,27,Male,Left handed,2021-07-26_20h50.11.326,MA Experiment 2,2021.1.2,MacIntel,60.0024001,1,33,67,22,1,,,,,
2.1601,response_2,shortValid,KERNEL,FACTORY,,,,,,PAINTER,VEHICLE,short,resources/sound/trials/audio_stim_human47.mp3,60fef1ffa5ae99797bc2e659,27,Male,Left handed,2021-07-26_20h50.11.326,MA Experiment 2,2021.1.2,MacIntel,60.0024001,2,0,68,11,1,,,,,
1.5765,response_1,longFoil,PATIENT,FAMILY,,,,,,DAYLIGHT,MATERIAL,short,resources/sound/trials/audio_stim_human42.mp3,60fef1ffa5ae99797bc2e659,27,Male,Left handed,2021-07-26_20h50.11.326,MA Experiment 2,2021.1.2,MacIntel,60.0024001,2,1,69,9,1,,,,,
1.1951,response_2,longValid,VALLEY,INSTRUCTOR,,,,,,MINER,EMERALD,short,resources/sound/trials/audio_stim_comp6.mp3,60fef1ffa5ae99797bc2e659,27,Male,Left handed,2021-07-26_20h50.11.326,MA Experiment 2,2021.1.2,MacIntel,60.0024001,2,2,70,1,1,,,,,
1.1454,response_2,,FATHER,CANDLELIGHT,,,,,,IRIS,VIOLIN,long,resources/sound/catchTrials/audio_control_human_project12.mp3,60fef1ffa5ae99797bc2e659,27,Male,Left handed,2021-07-26_20h50.11.326,MA Experiment 2,2021.1.2,MacIntel,60.0024001,,,,,,0,6,6,24,1
1.497,response_2,longFoil,DIAL,BEVERAGE,,,,,,RUBBER,PROPERTY,long,resources/sound/trials/audio_stim_human0.mp3,60fef1ffa5ae99797bc2e659,27,Male,Left handed,2021-07-26_20h50.11.326,MA Experiment 2,2021.1.2,MacIntel,60.0024001,2,3,71,29,1,,,,,
1.7607,response_2,shortValid,DIVING,MEDICINE,,,,,,RECEIPT,LIMOUSINE,short,resources/sound/trials/audio_stim_comp40.mp3,60fef1ffa5ae99797bc2e659,27,Male,Left handed,2021-07-26_20h50.11.326,MA Experiment 2,2021.1.2,MacIntel,60.0024001,2,4,72,2,1,,,,,
0.6452,response_1,shortValid,UNCLE,INFECTION,,,,,,CONCRETE,ENEMY,short,resources/sound/trials/audio_stim_human67.mp3,60fef1ffa5ae99797bc2e659,27,Male,Left handed,2021-07-26_20h50.11.326,MA Experiment 2,2021.1.2,MacIntel,60.0024001,2,5,73,10,1,,,,,
1.5777,response_2,longValid,MEDICINE,SETTLEMENT,,,,,,MINER,EMERALD,long,resources/sound/trials/audio_stim_human6.mp3,60fef1ffa5ae99797bc2e659,27,Male,Left handed,2021-07-26_20h50.11.326,MA Experiment 2,2021.1.2,MacIntel,60.0024001,2,6,74,30,1,,,,,
0.8442,response_2,,WINDOW,JANITOR,,,,,,NAVY,RECTANGLE,short,resources/sound/catchTrials/audio_control_human_project06.mp3,60fef1ffa5ae99797bc2e659,27,Male,Left handed,2021-07-26_20h50.11.326,MA Experiment 2,2021.1.2,MacIntel,60.0024001,,,,,,0,4,4,14,1
1.1793,response_2,shortValid,WAFER,FISHERMAN,,,,,,PARTY,SANCTUARY,long,resources/sound/trials/audio_stim_human50.mp3,60fef1ffa5ae99797bc2e659,27,Male,Left handed,2021-07-26_20h50.11.326,MA Experiment 2,2021.1.2,MacIntel,60.0024001,2,7,75,31,1,,,,,
1.2954,response_1,shortValid,SADDLE,MERCURY,,,,,,ATHLETE,IVORY,short,resources/sound/trials/audio_stim_comp57.mp3,60fef1ffa5ae99797bc2e659,27,Male,Left handed,2021-07-26_20h50.11.326,MA Experiment 2,2021.1.2,MacIntel,60.0024001,2,8,76,5,1,,,,,
2.5325,response_1,shortValid,PICTURE,NEWSPAPER,,,,,,ATHLETE,IVORY,long,resources/sound/trials/audio_stim_comp57.mp3,60fef1ffa5ae99797bc2e659,27,Male,Left handed,2021-07-26_20h50.11.326,MA Experiment 2,2021.1.2,MacIntel,60.0024001,2,9,77,22,1,,,,,
1.0633,response_2,longFoil,OFFICE,VINEGAR,,,,,,PAINTER,VEHICLE,long,resources/sound/trials/audio_stim_human47.mp3,60fef1ffa5ae99797bc2e659,27,Male,Left handed,2021-07-26_20h50.11.326,MA Experiment 2,2021.1.2,MacIntel,60.0024001,2,10,78,28,1,,,,,
0.8609,response_2,,WIRE,INDUSTRY,,,,,,HOBBY,COLONY,long,resources/sound/catchTrials/audio_control_human_project04.mp3,60fef1ffa5ae99797bc2e659,27,Male,Left handed,2021-07-26_20h50.11.326,MA Experiment 2,2021.1.2,MacIntel,60.0024001,,,,,,0,19,19,27,1
1.1744,response_2,longFoil,INVOICE,MONUMENT,,,,,,WORKER,VISITOR,short,resources/sound/trials/audio_stim_comp17.mp3,60fef1ffa5ae99797bc2e659,27,Male,Left handed,2021-07-26_20h50.11.326,MA Experiment 2,2021.1.2,MacIntel,60.0024001,2,11,79,6,1,,,,,
1.6648,response_2,shortValid,MEASLES,PROFESSOR,,,,,,DRIZZLE,CARDINAL,long,resources/sound/trials/audio_stim_comp69.mp3,60fef1ffa5ae99797bc2e659,27,Male,Left handed,2021-07-26_20h50.11.326,MA Experiment 2,2021.1.2,MacIntel,60.0024001,2,12,80,17,1,,,,,
0.9771,response_2,shortValid,BEETLE,DESTROYER,,,,,,HARDWARE,OVERCOAT,long,resources/sound/trials/audio_stim_human35.mp3,60fef1ffa5ae99797bc2e659,27,Male,Left handed,2021-07-26_20h50.11.326,MA Experiment 2,2021.1.2,MacIntel,60.0024001,2,13,81,25,1,,,,,
1.578,response_2,longValid,EARTHWORM,CORRIDOR,,,,,,BRAINSTORM,GREEN NEEDLE,short,resources/sound/trials/audio_stim_original.mp3,60fef1ffa5ae99797bc2e659,27,Male,Left handed,2021-07-26_20h50.11.326,MA Experiment 2,2021.1.2,MacIntel,60.0024001,2,14,82,16,1,,,,,
0.528,response_1,,HAMSTER,SAXOPHONE,,,,,,VIOLET,LUBRICANT,short,resources/sound/catchTrials/audio_control_human_project07.mp3,60fef1ffa5ae99797bc2e659,27,Male,Left handed,2021-07-26_20h50.11.326,MA Experiment 2,2021.1.2,MacIntel,60.0024001,,,,,,0,22,22,12,1
1.4613,response_2,longFoil,TEMPLE,HOSPITAL,,,,,,SACRED,GALAXY,long,resources/sound/trials/audio_stim_comp1.mp3,60fef1ffa5ae99797bc2e659,27,Male,Left handed,2021-07-26_20h50.11.326,MA Experiment 2,2021.1.2,MacIntel,60.0024001,2,15,83,24,1,,,,,
0.5936,response_1,shortValid,NEIGHBOUR,CONVENTION,,,,,,DRIZZLE,CARDINAL,short,resources/sound/trials/audio_stim_comp69.mp3,60fef1ffa5ae99797bc2e659,27,Male,Left handed,2021-07-26_20h50.11.326,MA Experiment 2,2021.1.2,MacIntel,60.0024001,2,16,84,0,1,,,,,
1.4134,response_2,longValid,NATIVE,AMBULANCE,,,,,,PARTY,SANCTUARY,short,resources/sound/trials/audio_stim_human50.mp3,60fef1ffa5ae99797bc2e659,27,Male,Left handed,2021-07-26_20h50.11.326,MA Experiment 2,2021.1.2,MacIntel,60.0024001,2,17,85,14,1,,,,,
0.8804,response_2,longFoil,BERRY,ENAMEL,,,,,,MINER,EMERALD,long,resources/sound/trials/audio_stim_comp6.mp3,60fef1ffa5ae99797bc2e659,27,Male,Left handed,2021-07-26_20h50.11.326,MA Experiment 2,2021.1.2,MacIntel,60.0024001,2,18,86,18,1,,,,,
1.329,response_1,,MUSCLE,STRAWBERRY,,,,,,VIOLET,LUBRICANT,long,resources/sound/catchTrials/audio_control_comp_project07.mp3,60fef1ffa5ae99797bc2e659,27,Male,Left handed,2021-07-26_20h50.11.326,MA Experiment 2,2021.1.2,MacIntel,60.0024001,,,,,,0,12,12,19,1
1.4619,response_2,shortValid,SHOULDER,POTATO,,,,,,ROBBER,RATTLESNAKE,long,resources/sound/trials/audio_stim_human64.mp3,60fef1ffa5ae99797bc2e659,27,Male,Left handed,2021-07-26_20h50.11.326,MA Experiment 2,2021.1.2,MacIntel,60.0024001,2,19,87,32,1,,,,,
1.3933,response_2,longFoil,PIANO,OXYGEN,,,,,,ROBBER,RATTLESNAKE,short,resources/sound/trials/audio_stim_human64.mp3,60fef1ffa5ae99797bc2e659,27,Male,Left handed,2021-07-26_20h50.11.326,MA Experiment 2,2021.1.2,MacIntel,60.0024001,2,20,88,15,1,,,,,
1.4276,response_1,longValid,LEADER,MOLECULE,,,,,,WHISTLE,TREASURER,long,resources/sound/trials/audio_stim_comp12.mp3,60fef1ffa5ae99797bc2e659,27,Male,Left handed,2021-07-26_20h50.11.326,MA Experiment 2,2021.1.2,MacIntel,60.0024001,2,21,89,20,1,,,,,
0.6579,response_1,shortFoil,RABBI,TANGERINE,,,,,,MARBLE,CUSTOMER,long,resources/sound/trials/audio_stim_comp65.mp3,60fef1ffa5ae99797bc2e659,27,Male,Left handed,2021-07-26_20h50.11.326,MA Experiment 2,2021.1.2,MacIntel,60.0024001,2,22,90,21,1,,,,,
0.7779,response_3,,DECOY,BUTTERFLY,,,,,,JOURNAL,ROBBERY,short,resources/sound/catchTrials/audio_control_human_project02.mp3,60fef1ffa5ae99797bc2e659,27,Male,Left handed,2021-07-26_20h50.11.326,MA Experiment 2,2021.1.2,MacIntel,60.0024001,,,,,,0,29,29,13,1
1.6751,response_1,shortFoil,NOVEL,DIAMOND,,,,,,SACRED,GALAXY,short,resources/sound/trials/audio_stim_comp1.mp3,60fef1ffa5ae99797bc2e659,27,Male,Left handed,2021-07-26_20h50.11.326,MA Experiment 2,2021.1.2,MacIntel,60.0024001,2,23,91,7,1,,,,,
2.0874,response_2,shortValid,SINGER,PHOTOGRAPH,,,,,,RECEIPT,LIMOUSINE,long,resources/sound/trials/audio_stim_comp40.mp3,60fef1ffa5ae99797bc2e659,27,Male,Left handed,2021-07-26_20h50.11.326,MA Experiment 2,2021.1.2,MacIntel,60.0024001,2,24,92,19,1,,,,,
1.2373,response_2,shortValid,HURDLE,ASBESTOS,,,,,,HARDWARE,OVERCOAT,short,resources/sound/trials/audio_stim_human35.mp3,60fef1ffa5ae99797bc2e659,27,Male,Left handed,2021-07-26_20h50.11.326,MA Experiment 2,2021.1.2,MacIntel,60.0024001,2,25,93,8,1,,,,,
1.1969,response_2,longFoil,DUEL,COMMITTEE,,,,,,WORKER,VISITOR,long,resources/sound/trials/audio_stim_comp17.mp3,60fef1ffa5ae99797bc2e659,27,Male,Left handed,2021-07-26_20h50.11.326,MA Experiment 2,2021.1.2,MacIntel,60.0024001,2,26,94,23,1,,,,,
0.7589,response_2,,MURDER,INJURY,,,,,,JOURNAL,ROBBERY,long,resources/sound/catchTrials/audio_control_human_project02.mp3,60fef1ffa5ae99797bc2e659,27,Male,Left handed,2021-07-26_20h50.11.326,MA Experiment 2,2021.1.2,MacIntel,60.0024001,,,,,,0,14,14,29,1
2.0967,response_2,longFoil,MURAL,DISSECTION,,,,,,MINER,EMERALD,short,resources/sound/trials/audio_stim_human6.mp3,60fef1ffa5ae99797bc2e659,27,Male,Left handed,2021-07-26_20h50.11.326,MA Experiment 2,2021.1.2,MacIntel,60.0024001,2,27,95,13,1,,,,,
1.1876,response_1,shortFoil,BURNER,FACTORY,,,,,,CONCRETE,ENEMY,long,resources/sound/trials/audio_stim_human67.mp3,60fef1ffa5ae99797bc2e659,27,Male,Left handed,2021-07-26_20h50.11.326,MA Experiment 2,2021.1.2,MacIntel,60.0024001,2,28,96,27,1,,,,,
1.0766,response_2,longFoil,BUTTER,MINISTER,,,,,,BRAINSTORM,GREEN NEEDLE,long,resources/sound/trials/audio_stim_original.mp3,60fef1ffa5ae99797bc2e659,27,Male,Left handed,2021-07-26_20h50.11.326,MA Experiment 2,2021.1.2,MacIntel,60.0024001,2,29,97,33,1,,,,,
1.1749,response_2,longValid,GIRDLE,CARNATION,,,,,,WHISTLE,TREASURER,short,resources/sound/trials/audio_stim_comp12.mp3,60fef1ffa5ae99797bc2e659,27,Male,Left handed,2021-07-26_20h50.11.326,MA Experiment 2,2021.1.2,MacIntel,60.0024001,2,30,98,3,1,,,,,
1.3064,response_2,,VAPOUR,CIGARETTE,,,,,,ICY,JITTERBUG,short,resources/sound/catchTrials/audio_control_comp_project08.mp3,60fef1ffa5ae99797bc2e659,27,Male,Left handed,2021-07-26_20h50.11.326,MA Experiment 2,2021.1.2,MacIntel,60.0024001,,,,,,0,2,2,7,1
0.5107,response_1,shortFoil,ACRE,APPLIANCE,,,,,,DAYLIGHT,MATERIAL,long,resources/sound/trials/audio_stim_human42.mp3,60fef1ffa5ae99797bc2e659,27,Male,Left handed,2021-07-26_20h50.11.326,MA Experiment 2,2021.1.2,MacIntel,60.0024001,2,31,99,26,1,,,,,
1.2785,response_2,longValid,CAPTAIN,MINERAL,,,,,,RUBBER,PROPERTY,short,resources/sound/trials/audio_stim_human0.mp3,60fef1ffa5ae99797bc2e659,27,Male,Left handed,2021-07-26_20h50.11.326,MA Experiment 2,2021.1.2,MacIntel,60.0024001,2,32,100,12,1,,,,,
0.4775,response_1,shortFoil,PERSON,CLARINET,,,,,,MARBLE,CUSTOMER,short,resources/sound/trials/audio_stim_comp65.mp3,60fef1ffa5ae99797bc2e659,27,Male,Left handed,2021-07-26_20h50.11.326,MA Experiment 2,2021.1.2,MacIntel,60.0024001,2,33,101,4,1,,,,,
0.454,response_1,shortValid,BISHOP,CINNAMON,,,,,,MARBLE,CUSTOMER,short,resources/sound/trials/audio_stim_comp65.mp3,60fef1ffa5ae99797bc2e659,27,Male,Left handed,2021-07-26_20h50.11.326,MA Experiment 2,2021.1.2,MacIntel,60.0024001,3,0,102,4,1,,,,,
1.7396,response_2,longFoil,KERNEL,MESSENGER,,,,,,PAINTER,VEHICLE,short,resources/sound/trials/audio_stim_human47.mp3,60fef1ffa5ae99797bc2e659,27,Male,Left handed,2021-07-26_20h50.11.326,MA Experiment 2,2021.1.2,MacIntel,60.0024001,3,1,103,11,1,,,,,
1.1263,response_2,longFoil,JURY,ADMIRAL,,,,,,PARTY,SANCTUARY,short,resources/sound/trials/audio_stim_human50.mp3,60fef1ffa5ae99797bc2e659,27,Male,Left handed,2021-07-26_20h50.11.326,MA Experiment 2,2021.1.2,MacIntel,60.0024001,3,2,104,14,1,,,,,
0.6264,response_2,,KETTLE,LECTURER,,,,,,IRIS,VIOLIN,long,resources/sound/catchTrials/audio_control_comp_project12.mp3,60fef1ffa5ae99797bc2e659,27,Male,Left handed,2021-07-26_20h50.11.326,MA Experiment 2,2021.1.2,MacIntel,60.0024001,,,,,,0,30,30,20,1
1.711,response_1,shortValid,MORNING,NEIGHBOURHOOD,,,,,,WHISTLE,TREASURER,long,resources/sound/trials/audio_stim_comp12.mp3,60fef1ffa5ae99797bc2e659,27,Male,Left handed,2021-07-26_20h50.11.326,MA Experiment 2,2021.1.2,MacIntel,60.0024001,3,3,105,20,1,,,,,
0.6917,response_2,shortValid,NURSERY,CABINET,,,,,,BRAINSTORM,GREEN NEEDLE,short,resources/sound/trials/audio_stim_original.mp3,60fef1ffa5ae99797bc2e659,27,Male,Left handed,2021-07-26_20h50.11.326,MA Experiment 2,2021.1.2,MacIntel,60.0024001,3,4,106,16,1,,,,,
1.6781,response_1,longValid,WALRUS,GINGERBREAD,,,,,,DRIZZLE,CARDINAL,long,resources/sound/trials/audio_stim_comp69.mp3,60fef1ffa5ae99797bc2e659,27,Male,Left handed,2021-07-26_20h50.11.326,MA Experiment 2,2021.1.2,MacIntel,60.0024001,3,5,107,17,1,,,,,
0.9988,response_2,longValid,HARBOUR,AMMONIA,,,,,,DRIZZLE,CARDINAL,short,resources/sound/trials/audio_stim_comp69.mp3,60fef1ffa5ae99797bc2e659,27,Male,Left handed,2021-07-26_20h50.11.326,MA Experiment 2,2021.1.2,MacIntel,60.0024001,3,6,108,0,1,,,,,
1.0778,response_2,,HAMMER,ALPHABET,,,,,,BORDER,ALGEBRA,long,resources/sound/catchTrials/audio_control_comp_project00.mp3,60fef1ffa5ae99797bc2e659,27,Male,Left handed,2021-07-26_20h50.11.326,MA Experiment 2,2021.1.2,MacIntel,60.0024001,,,,,,0,21,21,16,1
2.6667,response_2,longFoil,LIGHTNING,ATHLETICS,,,,,,RECEIPT,LIMOUSINE,short,resources/sound/trials/audio_stim_comp40.mp3,60fef1ffa5ae99797bc2e659,27,Male,Left handed,2021-07-26_20h50.11.326,MA Experiment 2,2021.1.2,MacIntel,60.0024001,3,7,109,2,1,,,,,
1.5918,response_1,shortFoil,STOCKING,GYMNASTICS,,,,,,DAYLIGHT,MATERIAL,short,resources/sound/trials/audio_stim_human42.mp3,60fef1ffa5ae99797bc2e659,27,Male,Left handed,2021-07-26_20h50.11.326,MA Experiment 2,2021.1.2,MacIntel,60.0024001,3,8,110,9,1,,,,,
0.9284,response_1,longFoil,GRADUATE,CROCODILE,,,,,,PARTY,SANCTUARY,long,resources/sound/trials/audio_stim_human50.mp3,60fef1ffa5ae99797bc2e659,27,Male,Left handed,2021-07-26_20h50.11.326,MA Experiment 2,2021.1.2,MacIntel,60.0024001,3,9,111,31,1,,,,,
2.1076,response_2,shortFoil,LIQUID,INTERVIEW,,,,,,ATHLETE,IVORY,short,resources/sound/trials/audio_stim_comp57.mp3,60fef1ffa5ae99797bc2e659,27,Male,Left handed,2021-07-26_20h50.11.326,MA Experiment 2,2021.1.2,MacIntel,60.0024001,3,10,112,5,1,,,,,
1.2614,response_2,,NAPKIN,POLIO,,,,,,NAVY,RECTANGLE,long,resources/sound/catchTrials/audio_control_human_project06.mp3,60fef1ffa5ae99797bc2e659,27,Male,Left handed,2021-07-26_20h50.11.326,MA Experiment 2,2021.1.2,MacIntel,60.0024001,,,,,,0,27,27,30,1
1.2231,response_1,longFoil,SEGMENT,HEROIN,,,,,,DAYLIGHT,MATERIAL,long,resources/sound/trials/audio_stim_human42.mp3,60fef1ffa5ae99797bc2e659,27,Male,Left handed,2021-07-26_20h50.11.326,MA Experiment 2,2021.1.2,MacIntel,60.0024001,3,11,113,26,1,,,,,
1.4112,response_2,shortValid,DANCER,ICICLE,,,,,,SACRED,GALAXY,long,resources/sound/trials/audio_stim_comp1.mp3,60fef1ffa5ae99797bc2e659,27,Male,Left handed,2021-07-26_20h50.11.326,MA Experiment 2,2021.1.2,MacIntel,60.0024001,3,12,114,24,1,,,,,
1.1788,response_1,longValid,POLO,HANDKERCHIEF,,,,,,MARBLE,CUSTOMER,long,resources/sound/trials/audio_stim_comp65.mp3,60fef1ffa5ae99797bc2e659,27,Male,Left handed,2021-07-26_20h50.11.326,MA Experiment 2,2021.1.2,MacIntel,60.0024001,3,13,115,21,1,,,,,
0.8256,response_2,longValid,NECKLACE,INSTRUMENT,,,,,,BRAINSTORM,GREEN NEEDLE,long,resources/sound/trials/audio_stim_original.mp3,60fef1ffa5ae99797bc2e659,27,Male,Left handed,2021-07-26_20h50.11.326,MA Experiment 2,2021.1.2,MacIntel,60.0024001,3,14,116,33,1,,,,,
0.7605,response_2,,RUSTY,FIREWOOD,,,,,,HOBBY,COLONY,short,resources/sound/catchTrials/audio_control_human_project04.mp3,60fef1ffa5ae99797bc2e659,27,Male,Left handed,2021-07-26_20h50.11.326,MA Experiment 2,2021.1.2,MacIntel,60.0024001,,,,,,0,13,13,11,1
1.4435,response_2,shortFoil,STATION,HEADQUARTERS,,,,,,ROBBER,RATTLESNAKE,short,resources/sound/trials/audio_stim_human64.mp3,60fef1ffa5ae99797bc2e659,27,Male,Left handed,2021-07-26_20h50.11.326,MA Experiment 2,2021.1.2,MacIntel,60.0024001,3,15,117,15,1,,,,,
1.4785,response_2,longValid,DOORWAY,OPENING,,,,,,WORKER,VISITOR,long,resources/sound/trials/audio_stim_comp17.mp3,60fef1ffa5ae99797bc2e659,27,Male,Left handed,2021-07-26_20h50.11.326,MA Experiment 2,2021.1.2,MacIntel,60.0024001,3,16,118,23,1,,,,,
1.5118,response_2,shortFoil,MISTRESS,ANTIQUE,,,,,,MINER,EMERALD,long,resources/sound/trials/audio_stim_comp6.mp3,60fef1ffa5ae99797bc2e659,27,Male,Left handed,2021-07-26_20h50.11.326,MA Experiment 2,2021.1.2,MacIntel,60.0024001,3,17,119,18,1,,,,,
0.7152,response_1,longValid,TORTURE,FURNITURE,,,,,,CONCRETE,ENEMY,long,resources/sound/trials/audio_stim_human67.mp3,60fef1ffa5ae99797bc2e659,27,Male,Left handed,2021-07-26_20h50.11.326,MA Experiment 2,2021.1.2,MacIntel,60.0024001,3,18,120,27,1,,,,,
1.365,response_2,,FEVER,GALLERY,,,,,,NAVY,RECTANGLE,short,resources/sound/catchTrials/audio_control_comp_project06.mp3,60fef1ffa5ae99797bc2e659,27,Male,Left handed,2021-07-26_20h50.11.326,MA Experiment 2,2021.1.2,MacIntel,60.0024001,,,,,,0,7,7,6,1
0.804,response_2,shortValid,CRYSTAL,ATTENDANT,,,,,,MINER,EMERALD,short,resources/sound/trials/audio_stim_human6.mp3,60fef1ffa5ae99797bc2e659,27,Male,Left handed,2021-07-26_20h50.11.326,MA Experiment 2,2021.1.2,MacIntel,60.0024001,3,19,121,13,1,,,,,
1.4842,response_2,longValid,PODIUM,AVENUE,,,,,,ROBBER,RATTLESNAKE,long,resources/sound/trials/audio_stim_human64.mp3,60fef1ffa5ae99797bc2e659,27,Male,Left handed,2021-07-26_20h50.11.326,MA Experiment 2,2021.1.2,MacIntel,60.0024001,3,20,122,32,1,,,,,
1.572,response_2,shortValid,VESSEL,SPECIALIST,,,,,,SACRED,GALAXY,short,resources/sound/trials/audio_stim_comp1.mp3,60fef1ffa5ae99797bc2e659,27,Male,Left handed,2021-07-26_20h50.11.326,MA Experiment 2,2021.1.2,MacIntel,60.0024001,3,21,123,7,1,,,,,
0.8178,response_2,longValid,KENNEL,ENVELOPE,,,,,,RECEIPT,LIMOUSINE,long,resources/sound/trials/audio_stim_comp40.mp3,60fef1ffa5ae99797bc2e659,27,Male,Left handed,2021-07-26_20h50.11.326,MA Experiment 2,2021.1.2,MacIntel,60.0024001,3,22,124,19,1,,,,,
0.8816,response_2,,CEREAL,CITIZEN,,,,,,SPINACH,APRICOT,long,resources/sound/catchTrials/audio_control_comp_project18.mp3,60fef1ffa5ae99797bc2e659,27,Male,Left handed,2021-07-26_20h50.11.326,MA Experiment 2,2021.1.2,MacIntel,60.0024001,,,,,,0,18,18,21,1
1.5261,response_2,shortValid,SHEEPSKIN,PROJECTOR,,,,,,RUBBER,PROPERTY,short,resources/sound/trials/audio_stim_human0.mp3,60fef1ffa5ae99797bc2e659,27,Male,Left handed,2021-07-26_20h50.11.326,MA Experiment 2,2021.1.2,MacIntel,60.0024001,3,23,125,12,1,,,,,
1.2656,response_1,shortFoil,PIPING,GRASSHOPPER,,,,,,WHISTLE,TREASURER,short,resources/sound/trials/audio_stim_comp12.mp3,60fef1ffa5ae99797bc2e659,27,Male,Left handed,2021-07-26_20h50.11.326,MA Experiment 2,2021.1.2,MacIntel,60.0024001,3,24,126,3,1,,,,,
1.0507,response_1,longFoil,CURFEW,CHOCOLATE,,,,,,ATHLETE,IVORY,long,resources/sound/trials/audio_stim_comp57.mp3,60fef1ffa5ae99797bc2e659,27,Male,Left handed,2021-07-26_20h50.11.326,MA Experiment 2,2021.1.2,MacIntel,60.0024001,3,25,127,22,1,,,,,
1.1437,response_2,shortValid,EVENING,MICROSCOPE,,,,,,PAINTER,VEHICLE,long,resources/sound/trials/audio_stim_human47.mp3,60fef1ffa5ae99797bc2e659,27,Male,Left handed,2021-07-26_20h50.11.326,MA Experiment 2,2021.1.2,MacIntel,60.0024001,3,26,128,28,1,,,,,
1.8812,response_2,,PRINCESS,UMBRELLA,,,,,,IRIS,VIOLIN,short,resources/sound/catchTrials/audio_control_comp_project12.mp3,60fef1ffa5ae99797bc2e659,27,Male,Left handed,2021-07-26_20h50.11.326,MA Experiment 2,2021.1.2,MacIntel,60.0024001,,,,,,0,23,23,4,1
1.2818,response_2,longValid,SOFA,ABDOMEN,,,,,,HARDWARE,OVERCOAT,long,resources/sound/trials/audio_stim_human35.mp3,60fef1ffa5ae99797bc2e659,27,Male,Left handed,2021-07-26_20h50.11.326,MA Experiment 2,2021.1.2,MacIntel,60.0024001,3,27,129,25,1,,,,,
1.237,response_2,shortFoil,INCOME,ACROBAT,,,,,,RUBBER,PROPERTY,long,resources/sound/trials/audio_stim_human0.mp3,60fef1ffa5ae99797bc2e659,27,Male,Left handed,2021-07-26_20h50.11.326,MA Experiment 2,2021.1.2,MacIntel,60.0024001,3,28,130,29,1,,,,,
1.2124,response_2,shortFoil,VILLAGE,LEMONADE,,,,,,WORKER,VISITOR,short,resources/sound/trials/audio_stim_comp17.mp3,60fef1ffa5ae99797bc2e659,27,Male,Left handed,2021-07-26_20h50.11.326,MA Experiment 2,2021.1.2,MacIntel,60.0024001,3,29,131,6,1,,,,,
1.3118,response_2,longValid,FAIRY,PROPELLER,,,,,,HARDWARE,OVERCOAT,short,resources/sound/trials/audio_stim_human35.mp3,60fef1ffa5ae99797bc2e659,27,Male,Left handed,2021-07-26_20h50.11.326,MA Experiment 2,2021.1.2,MacIntel,60.0024001,3,30,132,8,1,,,,,
1.5782,response_1,,MOONLIGHT,EMULSION,,,,,,VIOLET,LUBRICANT,short,resources/sound/catchTrials/audio_control_comp_project07.mp3,60fef1ffa5ae99797bc2e659,27,Male,Left handed,2021-07-26_20h50.11.326,MA Experiment 2,2021.1.2,MacIntel,60.0024001,,,,,,0,8,8,3,1
1.3979,response_1,longValid,WRITING,GOVERNMENT,,,,,,CONCRETE,ENEMY,short,resources/sound/trials/audio_stim_human67.mp3,60fef1ffa5ae99797bc2e659,27,Male,Left handed,2021-07-26_20h50.11.326,MA Experiment 2,2021.1.2,MacIntel,60.0024001,3,31,133,10,1,,,,,
1.2824,response_1,shortFoil,TRAITOR,HONEYMOON,,,,,,MINER,EMERALD,short,resources/sound/trials/audio_stim_comp6.mp3,60fef1ffa5ae99797bc2e659,27,Male,Left handed,2021-07-26_20h50.11.326,MA Experiment 2,2021.1.2,MacIntel,60.0024001,3,32,134,1,1,,,,,
1.5561,response_1,longFoil,CANTEEN,HURRICANE,,,,,,MINER,EMERALD,long,resources/sound/trials/audio_stim_human6.mp3,60fef1ffa5ae99797bc2e659,27,Male,Left handed,2021-07-26_20h50.11.326,MA Experiment 2,2021.1.2,MacIntel,60.0024001,3,33,135,30,1,,,,,
