response.time,response,cueTarget,rand_foil_1,rand_foil_2,prac_trials.thisRepN,prac_trials.thisTrialN,prac_trials.thisN,prac_trials.thisIndex,prac_trials.ran,word_1,word_2,cue,file_path,participant,age,gender,handedness,date,expName,psychopyVersion,OS,frameRate,trials.thisRepN,trials.thisTrialN,trials.thisN,trials.thisIndex,trials.ran,catchTrials.thisRepN,catchTrials.thisTrialN,catchTrials.thisN,catchTrials.thisIndex,catchTrials.ran
2.364,response_2,longFoil,BURNER,CITIZEN,0,0,0,7,1,BUCKLE,WALLABY,long,resources/sound/prac_trials/practice_cue_human7.mp3,60fe828e99235efe5d258412,25,Female,Right handed,2021-07-27_16h33.33.126,MA Experiment 2,2021.1.2,MacIntel,62.5,,,,,,,,,,
,,shortFoil,RABBI,ACROBAT,0,1,1,3,1,EAGER,QUALIFY,short,resources/sound/prac_trials/practice_cue_human3.mp3,60fe828e99235efe5d258412,25,Female,Right handed,2021-07-27_16h33.33.126,MA Experiment 2,2021.1.2,MacIntel,62.5,,,,,,,,,,
1.796,response_1,shortFoil,HAMSTER,GRASSHOPPER,0,2,2,0,1,AARDVARK,FALLACY,short,resources/sound/prac_trials/practice_cue0.mp3,60fe828e99235efe5d258412,25,Female,Right handed,2021-07-27_16h33.33.126,MA Experiment 2,2021.1.2,MacIntel,62.5,,,,,,,,,,
2.146,response_1,shortValid,CAPTAIN,MERCURY,0,3,3,11,1,KETCHUP,GONDOLA,long,resources/sound/prac_trials/practice_cue_human11.mp3,60fe828e99235efe5d258412,25,Female,Right handed,2021-07-27_16h33.33.126,MA Experiment 2,2021.1.2,MacIntel,62.5,,,,,,,,,,
1.264,response_1,shortFoil,DWELLER,ICICLE,0,4,4,10,1,SAFFRON,JAVELIN,long,resources/sound/prac_trials/practice_cue10.mp3,60fe828e99235efe5d258412,25,Female,Right handed,2021-07-27_16h33.33.126,MA Experiment 2,2021.1.2,MacIntel,62.5,,,,,,,,,,
1.397,response_2,shortFoil,CANTEEN,MICROSCOPE,0,5,5,4,1,FIZZY,ELECTRIC,short,resources/sound/prac_trials/practice_cue4.mp3,60fe828e99235efe5d258412,25,Female,Right handed,2021-07-27_16h33.33.126,MA Experiment 2,2021.1.2,MacIntel,62.5,,,,,,,,,,
1.163,response_2,longValid,SOFA,NEWSPAPER,0,6,6,6,1,VACANT,SALVATION,long,resources/sound/prac_trials/practice_cue6.mp3,60fe828e99235efe5d258412,25,Female,Right handed,2021-07-27_16h33.33.126,MA Experiment 2,2021.1.2,MacIntel,62.5,,,,,,,,,,
1.03,response_2,longValid,DIVING,AVENUE,0,7,7,5,1,NONSENSE,OASIS,short,resources/sound/prac_trials/practice_cue_human5.mp3,60fe828e99235efe5d258412,25,Female,Right handed,2021-07-27_16h33.33.126,MA Experiment 2,2021.1.2,MacIntel,62.5,,,,,,,,,,
1.129,response_2,shortValid,SINGER,CONVENTION,0,8,8,2,1,RECENT,TOBACCO,short,resources/sound/prac_trials/practice_cue2.mp3,60fe828e99235efe5d258412,25,Female,Right handed,2021-07-27_16h33.33.126,MA Experiment 2,2021.1.2,MacIntel,62.5,,,,,,,,,,
1.763,response_2,longFoil,ANCHOR,ABDOMEN,0,9,9,8,1,DAGGER,EMPHASIS,long,resources/sound/prac_trials/practice_cue8.mp3,60fe828e99235efe5d258412,25,Female,Right handed,2021-07-27_16h33.33.126,MA Experiment 2,2021.1.2,MacIntel,62.5,,,,,,,,,,
1.347,response_2,longValid,WIRE,CARNATION,0,10,10,1,1,CABLE,REPUBLIC,short,resources/sound/prac_trials/practice_cue_human1.mp3,60fe828e99235efe5d258412,25,Female,Right handed,2021-07-27_16h33.33.126,MA Experiment 2,2021.1.2,MacIntel,62.5,,,,,,,,,,
0.796,response_2,shortFoil,VALLEY,GYMNASTICS,0,11,11,9,1,GRUMPY,LABYRINTH,long,resources/sound/prac_trials/practice_cue_human9.mp3,60fe828e99235efe5d258412,25,Female,Right handed,2021-07-27_16h33.33.126,MA Experiment 2,2021.1.2,MacIntel,62.5,,,,,,,,,,
1.296,response_2,shortValid,KETTLE,CORRIDOR,,,,,,DAYLIGHT,MATERIAL,short,resources/sound/trials/audio_stim_human42.mp3,60fe828e99235efe5d258412,25,Female,Right handed,2021-07-27_16h33.33.126,MA Experiment 2,2021.1.2,MacIntel,62.5,0,0,0,9,1,,,,,
1.08,response_2,longValid,HAMMER,HOSPITAL,,,,,,WORKER,VISITOR,short,resources/sound/trials/audio_stim_comp17.mp3,60fe828e99235efe5d258412,25,Female,Right handed,2021-07-27_16h33.33.126,MA Experiment 2,2021.1.2,MacIntel,62.5,0,1,1,6,1,,,,,
1.03,response_2,longFoil,CURFEW,CAPITAL,,,,,,DAYLIGHT,MATERIAL,long,resources/sound/trials/audio_stim_human42.mp3,60fe828e99235efe5d258412,25,Female,Right handed,2021-07-27_16h33.33.126,MA Experiment 2,2021.1.2,MacIntel,62.5,0,2,2,26,1,,,,,
1.112,response_2,,FEVER,BUTTERFLY,,,,,,JOURNAL,ROBBERY,short,resources/sound/catchTrials/audio_control_human_project02.mp3,60fe828e99235efe5d258412,25,Female,Right handed,2021-07-27_16h33.33.126,MA Experiment 2,2021.1.2,MacIntel,62.5,,,,,,0,0,0,13,1
1.464,response_2,shortFoil,HARBOUR,MINISTER,,,,,,ATHLETE,IVORY,long,resources/sound/trials/audio_stim_comp57.mp3,60fe828e99235efe5d258412,25,Female,Right handed,2021-07-27_16h33.33.126,MA Experiment 2,2021.1.2,MacIntel,62.5,0,3,3,22,1,,,,,
1.063,response_1,shortValid,DUEL,BEVERAGE,,,,,,DRIZZLE,CARDINAL,long,resources/sound/trials/audio_stim_comp69.mp3,60fe828e99235efe5d258412,25,Female,Right handed,2021-07-27_16h33.33.126,MA Experiment 2,2021.1.2,MacIntel,62.5,0,4,4,17,1,,,,,
0.896,response_2,shortValid,TORTURE,PROPELLER,,,,,,MINER,EMERALD,long,resources/sound/trials/audio_stim_comp6.mp3,60fe828e99235efe5d258412,25,Female,Right handed,2021-07-27_16h33.33.126,MA Experiment 2,2021.1.2,MacIntel,62.5,0,5,5,18,1,,,,,
1.898,response_1,shortValid,PATIENT,DESTROYER,,,,,,PAINTER,VEHICLE,long,resources/sound/trials/audio_stim_human47.mp3,60fe828e99235efe5d258412,25,Female,Right handed,2021-07-27_16h33.33.126,MA Experiment 2,2021.1.2,MacIntel,62.5,0,6,6,28,1,,,,,
0.946,response_2,,POLO,NEIGHBOURHOOD,,,,,,NAVY,RECTANGLE,short,resources/sound/catchTrials/audio_control_comp_project06.mp3,60fe828e99235efe5d258412,25,Female,Right handed,2021-07-27_16h33.33.126,MA Experiment 2,2021.1.2,MacIntel,62.5,,,,,,0,19,19,6,1
0.797,response_1,shortValid,LOBSTER,CABINET,,,,,,RECEIPT,LIMOUSINE,long,resources/sound/trials/audio_stim_comp40.mp3,60fe828e99235efe5d258412,25,Female,Right handed,2021-07-27_16h33.33.126,MA Experiment 2,2021.1.2,MacIntel,62.5,0,7,7,19,1,,,,,
2.012,response_2,shortFoil,INCOME,HEROIN,,,,,,ROBBER,RATTLESNAKE,long,resources/sound/trials/audio_stim_human64.mp3,60fe828e99235efe5d258412,25,Female,Right handed,2021-07-27_16h33.33.126,MA Experiment 2,2021.1.2,MacIntel,62.5,0,8,8,32,1,,,,,
1.145,response_2,longFoil,NECKLACE,AMBULANCE,,,,,,ATHLETE,IVORY,short,resources/sound/trials/audio_stim_comp57.mp3,60fe828e99235efe5d258412,25,Female,Right handed,2021-07-27_16h33.33.126,MA Experiment 2,2021.1.2,MacIntel,62.5,0,9,9,5,1,,,,,
1.828,response_2,longFoil,STATION,COMMITTEE,,,,,,BRAINSTORM,GREEN NEEDLE,short,resources/sound/trials/audio_stim_original.mp3,60fe828e99235efe5d258412,25,Female,Right handed,2021-07-27_16h33.33.126,MA Experiment 2,2021.1.2,MacIntel,62.5,0,10,10,16,1,,,,,
1.53,response_1,,JURY,LECTURER,,,,,,POISON,REVOLVER,long,resources/sound/catchTrials/audio_control_human_project01.mp3,60fe828e99235efe5d258412,25,Female,Right handed,2021-07-27_16h33.33.126,MA Experiment 2,2021.1.2,MacIntel,62.5,,,,,,0,4,4,25,1
2.229,response_2,shortFoil,BISHOP,FIREWOOD,,,,,,RUBBER,PROPERTY,long,resources/sound/trials/audio_stim_human0.mp3,60fe828e99235efe5d258412,25,Female,Right handed,2021-07-27_16h33.33.126,MA Experiment 2,2021.1.2,MacIntel,62.5,0,11,11,29,1,,,,,
1.179,response_2,shortValid,TWEEZER,MECHANIC,,,,,,HARDWARE,OVERCOAT,long,resources/sound/trials/audio_stim_human35.mp3,60fe828e99235efe5d258412,25,Female,Right handed,2021-07-27_16h33.33.126,MA Experiment 2,2021.1.2,MacIntel,62.5,0,12,12,25,1,,,,,
1.096,response_1,longValid,GRADUATE,AMMONIA,,,,,,SACRED,GALAXY,short,resources/sound/trials/audio_stim_comp1.mp3,60fe828e99235efe5d258412,25,Female,Right handed,2021-07-27_16h33.33.126,MA Experiment 2,2021.1.2,MacIntel,62.5,0,13,13,7,1,,,,,
1.695,response_1,shortFoil,CIGAR,HEADQUARTERS,,,,,,PAINTER,VEHICLE,short,resources/sound/trials/audio_stim_human47.mp3,60fe828e99235efe5d258412,25,Female,Right handed,2021-07-27_16h33.33.126,MA Experiment 2,2021.1.2,MacIntel,62.5,0,14,14,11,1,,,,,
1.346,response_2,,LIGHTNING,ATTENDANT,,,,,,CORNER,ENGINEER,short,resources/sound/catchTrials/audio_control_comp_project14.mp3,60fe828e99235efe5d258412,25,Female,Right handed,2021-07-27_16h33.33.126,MA Experiment 2,2021.1.2,MacIntel,62.5,,,,,,0,26,26,1,1
0.996,response_1,longValid,PRINCESS,PROJECTOR,,,,,,RUBBER,PROPERTY,short,resources/sound/trials/audio_stim_human0.mp3,60fe828e99235efe5d258412,25,Female,Right handed,2021-07-27_16h33.33.126,MA Experiment 2,2021.1.2,MacIntel,62.5,0,15,15,12,1,,,,,
1.246,response_1,shortFoil,SHOULDER,MEDICINE,,,,,,HARDWARE,OVERCOAT,short,resources/sound/trials/audio_stim_human35.mp3,60fe828e99235efe5d258412,25,Female,Right handed,2021-07-27_16h33.33.126,MA Experiment 2,2021.1.2,MacIntel,62.5,0,16,16,8,1,,,,,
0.98,response_1,shortFoil,PICTURE,LEMONADE,,,,,,RECEIPT,LIMOUSINE,short,resources/sound/trials/audio_stim_comp40.mp3,60fe828e99235efe5d258412,25,Female,Right handed,2021-07-27_16h33.33.126,MA Experiment 2,2021.1.2,MacIntel,62.5,0,17,17,2,1,,,,,
1.612,response_2,shortFoil,WINDOW,STRAWBERRY,,,,,,BRAINSTORM,GREEN NEEDLE,long,resources/sound/trials/audio_stim_original.mp3,60fe828e99235efe5d258412,25,Female,Right handed,2021-07-27_16h33.33.126,MA Experiment 2,2021.1.2,MacIntel,62.5,0,18,18,33,1,,,,,
1.079,response_2,,SADDLE,CAMERA,,,,,,ICY,JITTERBUG,long,resources/sound/catchTrials/audio_control_comp_project08.mp3,60fe828e99235efe5d258412,25,Female,Right handed,2021-07-27_16h33.33.126,MA Experiment 2,2021.1.2,MacIntel,62.5,,,,,,0,14,14,23,1
1.63,response_2,shortFoil,DECOY,TANGERINE,,,,,,CONCRETE,ENEMY,long,resources/sound/trials/audio_stim_human67.mp3,60fe828e99235efe5d258412,25,Female,Right handed,2021-07-27_16h33.33.126,MA Experiment 2,2021.1.2,MacIntel,62.5,0,19,19,27,1,,,,,
1.214,response_1,longValid,MOONLIGHT,ALCOHOL,,,,,,MINER,EMERALD,short,resources/sound/trials/audio_stim_human6.mp3,60fe828e99235efe5d258412,25,Female,Right handed,2021-07-27_16h33.33.126,MA Experiment 2,2021.1.2,MacIntel,62.5,0,20,20,13,1,,,,,
1.364,response_2,shortValid,FATHER,MOLECULE,,,,,,MINER,EMERALD,short,resources/sound/trials/audio_stim_comp6.mp3,60fe828e99235efe5d258412,25,Female,Right handed,2021-07-27_16h33.33.126,MA Experiment 2,2021.1.2,MacIntel,62.5,0,21,21,1,1,,,,,
3.012,response_1,shortFoil,KERNEL,PROFESSOR,,,,,,SACRED,GALAXY,long,resources/sound/trials/audio_stim_comp1.mp3,60fe828e99235efe5d258412,25,Female,Right handed,2021-07-27_16h33.33.126,MA Experiment 2,2021.1.2,MacIntel,62.5,0,22,22,24,1,,,,,
1.296,response_1,,FOREARM,HANDKERCHIEF,,,,,,JUGGLER,DANDELION,short,resources/sound/catchTrials/audio_control_human_project09.mp3,60fe828e99235efe5d258412,25,Female,Right handed,2021-07-27_16h33.33.126,MA Experiment 2,2021.1.2,MacIntel,62.5,,,,,,0,21,21,15,1
3.063,response_4,shortFoil,HURDLE,FACTORY,,,,,,PARTY,SANCTUARY,long,resources/sound/trials/audio_stim_human50.mp3,60fe828e99235efe5d258412,25,Female,Right handed,2021-07-27_16h33.33.126,MA Experiment 2,2021.1.2,MacIntel,62.5,0,23,23,31,1,,,,,
2.029,response_2,longFoil,MEDICINE,SETTLEMENT,,,,,,WHISTLE,TREASURER,short,resources/sound/trials/audio_stim_comp12.mp3,60fe828e99235efe5d258412,25,Female,Right handed,2021-07-27_16h33.33.126,MA Experiment 2,2021.1.2,MacIntel,62.5,0,24,24,3,1,,,,,
1.33,response_1,longValid,UNCLE,ALPHABET,,,,,,MARBLE,CUSTOMER,long,resources/sound/trials/audio_stim_comp65.mp3,60fe828e99235efe5d258412,25,Female,Right handed,2021-07-27_16h33.33.126,MA Experiment 2,2021.1.2,MacIntel,62.5,0,25,25,21,1,,,,,
1.345,response_2,shortFoil,NOVEL,OPENING,,,,,,DRIZZLE,CARDINAL,short,resources/sound/trials/audio_stim_comp69.mp3,60fe828e99235efe5d258412,25,Female,Right handed,2021-07-27_16h33.33.126,MA Experiment 2,2021.1.2,MacIntel,62.5,0,26,26,0,1,,,,,
1.894,response_2,,NATIVE,DIAMOND,,,,,,BORDER,ALGEBRA,long,resources/sound/catchTrials/audio_control_comp_project00.mp3,60fe828e99235efe5d258412,25,Female,Right handed,2021-07-27_16h33.33.126,MA Experiment 2,2021.1.2,MacIntel,62.5,,,,,,0,13,13,16,1
1.763,response_1,shortFoil,WALRUS,CLARINET,,,,,,CONCRETE,ENEMY,short,resources/sound/trials/audio_stim_human67.mp3,60fe828e99235efe5d258412,25,Female,Right handed,2021-07-27_16h33.33.126,MA Experiment 2,2021.1.2,MacIntel,62.5,0,27,27,10,1,,,,,
3.379,response_1,longValid,VAPOUR,POTATO,,,,,,MARBLE,CUSTOMER,short,resources/sound/trials/audio_stim_comp65.mp3,60fe828e99235efe5d258412,25,Female,Right handed,2021-07-27_16h33.33.126,MA Experiment 2,2021.1.2,MacIntel,62.5,0,28,28,4,1,,,,,
1.912,response_2,shortValid,TEMPLE,ENVELOPE,,,,,,WORKER,VISITOR,long,resources/sound/trials/audio_stim_comp17.mp3,60fe828e99235efe5d258412,25,Female,Right handed,2021-07-27_16h33.33.126,MA Experiment 2,2021.1.2,MacIntel,62.5,0,29,29,23,1,,,,,
2.914,response_2,shortValid,MEASLES,INTERVIEW,,,,,,MINER,EMERALD,long,resources/sound/trials/audio_stim_human6.mp3,60fe828e99235efe5d258412,25,Female,Right handed,2021-07-27_16h33.33.126,MA Experiment 2,2021.1.2,MacIntel,62.5,0,30,30,30,1,,,,,
2.18,response_2,,WAFER,RETAILER,,,,,,NAVY,RECTANGLE,short,resources/sound/catchTrials/audio_control_human_project06.mp3,60fe828e99235efe5d258412,25,Female,Right handed,2021-07-27_16h33.33.126,MA Experiment 2,2021.1.2,MacIntel,62.5,,,,,,0,25,25,14,1
1.979,response_1,longValid,VILLAGE,CIGARETTE,,,,,,ROBBER,RATTLESNAKE,short,resources/sound/trials/audio_stim_human64.mp3,60fe828e99235efe5d258412,25,Female,Right handed,2021-07-27_16h33.33.126,MA Experiment 2,2021.1.2,MacIntel,62.5,0,31,31,15,1,,,,,
2.362,response_1,shortValid,DOORWAY,INSTITUTE,,,,,,WHISTLE,TREASURER,long,resources/sound/trials/audio_stim_comp12.mp3,60fe828e99235efe5d258412,25,Female,Right handed,2021-07-27_16h33.33.126,MA Experiment 2,2021.1.2,MacIntel,62.5,0,32,32,20,1,,,,,
2.612,,shortFoil,NAPKIN,JANITOR,,,,,,PARTY,SANCTUARY,short,resources/sound/trials/audio_stim_human50.mp3,60fe828e99235efe5d258412,25,Female,Right handed,2021-07-27_16h33.33.126,MA Experiment 2,2021.1.2,MacIntel,62.5,0,33,33,14,1,,,,,
2.43,response_1,shortFoil,WRITING,MESSENGER,,,,,,WORKER,VISITOR,long,resources/sound/trials/audio_stim_comp17.mp3,60fe828e99235efe5d258412,25,Female,Right handed,2021-07-27_16h33.33.126,MA Experiment 2,2021.1.2,MacIntel,62.5,1,0,34,23,1,,,,,
1.53,response_2,longValid,BEETLE,POLIO,,,,,,MINER,EMERALD,long,resources/sound/trials/audio_stim_human6.mp3,60fe828e99235efe5d258412,25,Female,Right handed,2021-07-27_16h33.33.126,MA Experiment 2,2021.1.2,MacIntel,62.5,1,1,35,30,1,,,,,
1.48,response_1,longFoil,STOCKING,CANDLELIGHT,,,,,,ROBBER,RATTLESNAKE,long,resources/sound/trials/audio_stim_human64.mp3,60fe828e99235efe5d258412,25,Female,Right handed,2021-07-27_16h33.33.126,MA Experiment 2,2021.1.2,MacIntel,62.5,1,2,36,32,1,,,,,
1.312,response_2,,NURSERY,INDUSTRY,,,,,,IRIS,VIOLIN,long,resources/sound/catchTrials/audio_control_comp_project12.mp3,60fe828e99235efe5d258412,25,Female,Right handed,2021-07-27_16h33.33.126,MA Experiment 2,2021.1.2,MacIntel,62.5,,,,,,0,9,9,20,1
2.579,response_1,shortValid,NEIGHBOUR,ASBESTOS,,,,,,CONCRETE,ENEMY,long,resources/sound/trials/audio_stim_human67.mp3,60fe828e99235efe5d258412,25,Female,Right handed,2021-07-27_16h33.33.126,MA Experiment 2,2021.1.2,MacIntel,62.5,1,3,37,27,1,,,,,
1.696,response_1,longValid,OLIVE,DISSECTION,,,,,,RUBBER,PROPERTY,long,resources/sound/trials/audio_stim_human0.mp3,60fe828e99235efe5d258412,25,Female,Right handed,2021-07-27_16h33.33.126,MA Experiment 2,2021.1.2,MacIntel,62.5,1,4,38,29,1,,,,,
2.063,response_1,shortFoil,SHEEPSKIN,OXYGEN,,,,,,MINER,EMERALD,short,resources/sound/trials/audio_stim_comp6.mp3,60fe828e99235efe5d258412,25,Female,Right handed,2021-07-27_16h33.33.126,MA Experiment 2,2021.1.2,MacIntel,62.5,1,5,39,1,1,,,,,
1.614,response_2,longValid,SODA,SAXOPHONE,,,,,,MINER,EMERALD,long,resources/sound/trials/audio_stim_comp6.mp3,60fe828e99235efe5d258412,25,Female,Right handed,2021-07-27_16h33.33.126,MA Experiment 2,2021.1.2,MacIntel,62.5,1,6,40,18,1,,,,,
1.046,response_2,,DIAL,HURRICANE,,,,,,JOURNAL,ROBBERY,long,resources/sound/catchTrials/audio_control_human_project02.mp3,60fe828e99235efe5d258412,25,Female,Right handed,2021-07-27_16h33.33.126,MA Experiment 2,2021.1.2,MacIntel,62.5,,,,,,0,11,11,29,1
1.696,response_1,longValid,TUMBLE,ENAMEL,,,,,,ATHLETE,IVORY,long,resources/sound/trials/audio_stim_comp57.mp3,60fe828e99235efe5d258412,25,Female,Right handed,2021-07-27_16h33.33.126,MA Experiment 2,2021.1.2,MacIntel,62.5,1,7,41,22,1,,,,,
1.497,response_2,shortValid,RUSTY,CATHEDRAL,,,,,,ATHLETE,IVORY,short,resources/sound/trials/audio_stim_comp57.mp3,60fe828e99235efe5d258412,25,Female,Right handed,2021-07-27_16h33.33.126,MA Experiment 2,2021.1.2,MacIntel,62.5,1,8,42,5,1,,,,,
2.48,response_2,longValid,CRYSTAL,CHOCOLATE,,,,,,PAINTER,VEHICLE,long,resources/sound/trials/audio_stim_human47.mp3,60fe828e99235efe5d258412,25,Female,Right handed,2021-07-27_16h33.33.126,MA Experiment 2,2021.1.2,MacIntel,62.5,1,9,43,28,1,,,,,
2.847,response_2,longFoil,EVENING,EMULSION,,,,,,PARTY,SANCTUARY,long,resources/sound/trials/audio_stim_human50.mp3,60fe828e99235efe5d258412,25,Female,Right handed,2021-07-27_16h33.33.126,MA Experiment 2,2021.1.2,MacIntel,62.5,1,10,44,31,1,,,,,
1.514,response_1,,PIANO,MONUMENT,,,,,,POISON,REVOLVER,short,resources/sound/catchTrials/audio_control_human_project01.mp3,60fe828e99235efe5d258412,25,Female,Right handed,2021-07-27_16h33.33.126,MA Experiment 2,2021.1.2,MacIntel,62.5,,,,,,0,23,23,9,1
1.247,response_2,shortValid,MURAL,POLICEMAN,,,,,,HARDWARE,OVERCOAT,short,resources/sound/trials/audio_stim_human35.mp3,60fe828e99235efe5d258412,25,Female,Right handed,2021-07-27_16h33.33.126,MA Experiment 2,2021.1.2,MacIntel,62.5,1,11,45,8,1,,,,,
2.947,response_2,shortValid,ACRE,INSTRUCTOR,,,,,,ROBBER,RATTLESNAKE,short,resources/sound/trials/audio_stim_human64.mp3,60fe828e99235efe5d258412,25,Female,Right handed,2021-07-27_16h33.33.126,MA Experiment 2,2021.1.2,MacIntel,62.5,1,12,46,15,1,,,,,
2.114,response_1,longFoil,INVOICE,ADMIRAL,,,,,,RECEIPT,LIMOUSINE,short,resources/sound/trials/audio_stim_comp40.mp3,60fe828e99235efe5d258412,25,Female,Right handed,2021-07-27_16h33.33.126,MA Experiment 2,2021.1.2,MacIntel,62.5,1,13,47,2,1,,,,,
3.078,response_2,shortFoil,LEADER,TEMPERATURE,,,,,,DAYLIGHT,MATERIAL,short,resources/sound/trials/audio_stim_human42.mp3,60fe828e99235efe5d258412,25,Female,Right handed,2021-07-27_16h33.33.126,MA Experiment 2,2021.1.2,MacIntel,62.5,1,14,48,9,1,,,,,
1.929,response_2,,GIRDLE,CINNAMON,,,,,,NAVY,RECTANGLE,long,resources/sound/catchTrials/audio_control_comp_project06.mp3,60fe828e99235efe5d258412,25,Female,Right handed,2021-07-27_16h33.33.126,MA Experiment 2,2021.1.2,MacIntel,62.5,,,,,,0,22,22,22,1
1.813,response_2,longValid,CHIPMUNK,ANTIQUE,,,,,,WHISTLE,TREASURER,short,resources/sound/trials/audio_stim_comp12.mp3,60fe828e99235efe5d258412,25,Female,Right handed,2021-07-27_16h33.33.126,MA Experiment 2,2021.1.2,MacIntel,62.5,1,15,49,3,1,,,,,
1.664,response_2,longValid,SULPHUR,ORNAMENT,,,,,,BRAINSTORM,GREEN NEEDLE,short,resources/sound/trials/audio_stim_original.mp3,60fe828e99235efe5d258412,25,Female,Right handed,2021-07-27_16h33.33.126,MA Experiment 2,2021.1.2,MacIntel,62.5,1,16,50,16,1,,,,,
1.48,response_1,shortFoil,PIPING,CROCODILE,,,,,,WORKER,VISITOR,short,resources/sound/trials/audio_stim_comp17.mp3,60fe828e99235efe5d258412,25,Female,Right handed,2021-07-27_16h33.33.126,MA Experiment 2,2021.1.2,MacIntel,62.5,1,17,51,6,1,,,,,
2.329,response_1,shortFoil,LIQUID,FAMILY,,,,,,SACRED,GALAXY,short,resources/sound/trials/audio_stim_comp1.mp3,60fe828e99235efe5d258412,25,Female,Right handed,2021-07-27_16h33.33.126,MA Experiment 2,2021.1.2,MacIntel,62.5,1,18,52,7,1,,,,,
2.38,response_2,,MISTRESS,GALLERY,,,,,,IRIS,VIOLIN,long,resources/sound/catchTrials/audio_control_human_project12.mp3,60fe828e99235efe5d258412,25,Female,Right handed,2021-07-27_16h33.33.126,MA Experiment 2,2021.1.2,MacIntel,62.5,,,,,,0,28,28,24,1
1.312,response_1,shortFoil,FERTILE,INSTRUMENT,,,,,,MARBLE,CUSTOMER,short,resources/sound/trials/audio_stim_comp65.mp3,60fe828e99235efe5d258412,25,Female,Right handed,2021-07-27_16h33.33.126,MA Experiment 2,2021.1.2,MacIntel,62.5,1,19,53,4,1,,,,,
1.813,response_2,longValid,DANCER,UMBRELLA,,,,,,PARTY,SANCTUARY,short,resources/sound/trials/audio_stim_human50.mp3,60fe828e99235efe5d258412,25,Female,Right handed,2021-07-27_16h33.33.126,MA Experiment 2,2021.1.2,MacIntel,62.5,1,20,54,14,1,,,,,
2.131,response_2,shortFoil,BERRY,GOVERNMENT,,,,,,WHISTLE,TREASURER,long,resources/sound/trials/audio_stim_comp12.mp3,60fe828e99235efe5d258412,25,Female,Right handed,2021-07-27_16h33.33.126,MA Experiment 2,2021.1.2,MacIntel,62.5,1,21,55,20,1,,,,,
1.562,response_1,longFoil,SEGMENT,PHYSICIAN,,,,,,SACRED,GALAXY,long,resources/sound/trials/audio_stim_comp1.mp3,60fe828e99235efe5d258412,25,Female,Right handed,2021-07-27_16h33.33.126,MA Experiment 2,2021.1.2,MacIntel,62.5,1,22,56,24,1,,,,,
1.446,response_2,,PERSON,REFEREE,,,,,,HOBBY,COLONY,short,resources/sound/catchTrials/audio_control_human_project04.mp3,60fe828e99235efe5d258412,25,Female,Right handed,2021-07-27_16h33.33.126,MA Experiment 2,2021.1.2,MacIntel,62.5,,,,,,0,12,12,11,1
1.447,response_2,longFoil,VESSEL,FISHERMAN,,,,,,RECEIPT,LIMOUSINE,long,resources/sound/trials/audio_stim_comp40.mp3,60fe828e99235efe5d258412,25,Female,Right handed,2021-07-27_16h33.33.126,MA Experiment 2,2021.1.2,MacIntel,62.5,1,23,57,19,1,,,,,
0.83,response_1,longFoil,MORNING,MOSQUITO,,,,,,DRIZZLE,CARDINAL,long,resources/sound/trials/audio_stim_comp69.mp3,60fe828e99235efe5d258412,25,Female,Right handed,2021-07-27_16h33.33.126,MA Experiment 2,2021.1.2,MacIntel,62.5,1,24,58,17,1,,,,,
2.213,response_2,longValid,BUTTER,FURNITURE,,,,,,CONCRETE,ENEMY,short,resources/sound/trials/audio_stim_human67.mp3,60fe828e99235efe5d258412,25,Female,Right handed,2021-07-27_16h33.33.126,MA Experiment 2,2021.1.2,MacIntel,62.5,1,25,59,10,1,,,,,
2.214,response_2,shortValid,OFFICE,APPLIANCE,,,,,,BRAINSTORM,GREEN NEEDLE,long,resources/sound/trials/audio_stim_original.mp3,60fe828e99235efe5d258412,25,Female,Right handed,2021-07-27_16h33.33.126,MA Experiment 2,2021.1.2,MacIntel,62.5,1,26,60,33,1,,,,,
2.347,response_2,,CABIN,SPECIALIST,,,,,,SPINACH,APRICOT,long,resources/sound/catchTrials/audio_control_comp_project18.mp3,60fe828e99235efe5d258412,25,Female,Right handed,2021-07-27_16h33.33.126,MA Experiment 2,2021.1.2,MacIntel,62.5,,,,,,0,2,2,21,1
1.413,response_1,longValid,PODIUM,GINGERBREAD,,,,,,DAYLIGHT,MATERIAL,long,resources/sound/trials/audio_stim_human42.mp3,60fe828e99235efe5d258412,25,Female,Right handed,2021-07-27_16h33.33.126,MA Experiment 2,2021.1.2,MacIntel,62.5,1,27,61,26,1,,,,,
2.746,response_2,shortValid,MURDER,INJURY,,,,,,RUBBER,PROPERTY,short,resources/sound/trials/audio_stim_human0.mp3,60fe828e99235efe5d258412,25,Female,Right handed,2021-07-27_16h33.33.126,MA Experiment 2,2021.1.2,MacIntel,62.5,1,28,62,12,1,,,,,
2.795,response_2,longValid,CEREAL,INFECTION,,,,,,HARDWARE,OVERCOAT,long,resources/sound/trials/audio_stim_human35.mp3,60fe828e99235efe5d258412,25,Female,Right handed,2021-07-27_16h33.33.126,MA Experiment 2,2021.1.2,MacIntel,62.5,1,29,63,25,1,,,,,
3.079,response_2,shortFoil,MUSCLE,MINERAL,,,,,,MINER,EMERALD,short,resources/sound/trials/audio_stim_human6.mp3,60fe828e99235efe5d258412,25,Female,Right handed,2021-07-27_16h33.33.126,MA Experiment 2,2021.1.2,MacIntel,62.5,1,30,64,13,1,,,,,
3.413,response_2,,KENNEL,HONEYMOON,,,,,,SPINACH,APRICOT,short,resources/sound/catchTrials/audio_control_comp_project18.mp3,60fe828e99235efe5d258412,25,Female,Right handed,2021-07-27_16h33.33.126,MA Experiment 2,2021.1.2,MacIntel,62.5,,,,,,0,29,29,5,1
2.247,response_2,longFoil,EARTHWORM,GORILLA,,,,,,MARBLE,CUSTOMER,long,resources/sound/trials/audio_stim_comp65.mp3,60fe828e99235efe5d258412,25,Female,Right handed,2021-07-27_16h33.33.126,MA Experiment 2,2021.1.2,MacIntel,62.5,1,31,65,21,1,,,,,
2.846,response_2,longFoil,TRAITOR,PHOTOGRAPH,,,,,,PAINTER,VEHICLE,short,resources/sound/trials/audio_stim_human47.mp3,60fe828e99235efe5d258412,25,Female,Right handed,2021-07-27_16h33.33.126,MA Experiment 2,2021.1.2,MacIntel,62.5,1,32,66,11,1,,,,,
2.429,response_1,longFoil,SCOOTER,VINEGAR,,,,,,DRIZZLE,CARDINAL,short,resources/sound/trials/audio_stim_comp69.mp3,60fe828e99235efe5d258412,25,Female,Right handed,2021-07-27_16h33.33.126,MA Experiment 2,2021.1.2,MacIntel,62.5,1,33,67,0,1,,,,,
1.813,response_2,shortValid,FAIRY,ATHLETICS,,,,,,MARBLE,CUSTOMER,short,resources/sound/trials/audio_stim_comp65.mp3,60fe828e99235efe5d258412,25,Female,Right handed,2021-07-27_16h33.33.126,MA Experiment 2,2021.1.2,MacIntel,62.5,2,0,68,4,1,,,,,
2.262,response_1,longFoil,WRITING,ALPHABET,,,,,,MINER,EMERALD,long,resources/sound/trials/audio_stim_comp6.mp3,60fe828e99235efe5d258412,25,Female,Right handed,2021-07-27_16h33.33.126,MA Experiment 2,2021.1.2,MacIntel,62.5,2,1,69,18,1,,,,,
1.463,response_1,shortFoil,KERNEL,ATTENDANT,,,,,,WHISTLE,TREASURER,short,resources/sound/trials/audio_stim_comp12.mp3,60fe828e99235efe5d258412,25,Female,Right handed,2021-07-27_16h33.33.126,MA Experiment 2,2021.1.2,MacIntel,62.5,2,2,70,3,1,,,,,
1.728,response_2,,CRYSTAL,INJURY,,,,,,IRIS,VIOLIN,short,resources/sound/catchTrials/audio_control_human_project12.mp3,60fe828e99235efe5d258412,25,Female,Right handed,2021-07-27_16h33.33.126,MA Experiment 2,2021.1.2,MacIntel,62.5,,,,,,0,30,30,8,1
1.129,response_2,shortValid,GIRDLE,SAXOPHONE,,,,,,ROBBER,RATTLESNAKE,long,resources/sound/trials/audio_stim_human64.mp3,60fe828e99235efe5d258412,25,Female,Right handed,2021-07-27_16h33.33.126,MA Experiment 2,2021.1.2,MacIntel,62.5,2,3,71,32,1,,,,,
1.995,response_3,shortFoil,PIANO,CLARINET,,,,,,MINER,EMERALD,long,resources/sound/trials/audio_stim_human6.mp3,60fe828e99235efe5d258412,25,Female,Right handed,2021-07-27_16h33.33.126,MA Experiment 2,2021.1.2,MacIntel,62.5,2,4,72,30,1,,,,,
2.581,response_2,longFoil,BURNER,CINNAMON,,,,,,HARDWARE,OVERCOAT,long,resources/sound/trials/audio_stim_human35.mp3,60fe828e99235efe5d258412,25,Female,Right handed,2021-07-27_16h33.33.126,MA Experiment 2,2021.1.2,MacIntel,62.5,2,5,73,25,1,,,,,
1.212,response_2,shortFoil,FAIRY,CARNATION,,,,,,ATHLETE,IVORY,short,resources/sound/trials/audio_stim_comp57.mp3,60fe828e99235efe5d258412,25,Female,Right handed,2021-07-27_16h33.33.126,MA Experiment 2,2021.1.2,MacIntel,62.5,2,6,74,5,1,,,,,
2.129,response_2,,BEETLE,MINERAL,,,,,,HOBBY,COLONY,long,resources/sound/catchTrials/audio_control_human_project04.mp3,60fe828e99235efe5d258412,25,Female,Right handed,2021-07-27_16h33.33.126,MA Experiment 2,2021.1.2,MacIntel,62.5,,,,,,0,10,10,27,1
2.079,response_2,longFoil,KETTLE,CITIZEN,,,,,,WORKER,VISITOR,long,resources/sound/trials/audio_stim_comp17.mp3,60fe828e99235efe5d258412,25,Female,Right handed,2021-07-27_16h33.33.126,MA Experiment 2,2021.1.2,MacIntel,62.5,2,7,75,23,1,,,,,
1.53,response_1,shortFoil,SINGER,MONUMENT,,,,,,DAYLIGHT,MATERIAL,long,resources/sound/trials/audio_stim_human42.mp3,60fe828e99235efe5d258412,25,Female,Right handed,2021-07-27_16h33.33.126,MA Experiment 2,2021.1.2,MacIntel,62.5,2,8,76,26,1,,,,,
,,shortValid,PRINCESS,AVENUE,,,,,,PAINTER,VEHICLE,short,resources/sound/trials/audio_stim_human47.mp3,60fe828e99235efe5d258412,25,Female,Right handed,2021-07-27_16h33.33.126,MA Experiment 2,2021.1.2,MacIntel,62.5,2,9,77,11,1,,,,,
2.495,response_2,shortValid,CEREAL,HOSPITAL,,,,,,WORKER,VISITOR,short,resources/sound/trials/audio_stim_comp17.mp3,60fe828e99235efe5d258412,25,Female,Right handed,2021-07-27_16h33.33.126,MA Experiment 2,2021.1.2,MacIntel,62.5,2,10,78,6,1,,,,,
0.93,response_2,,WALRUS,UMBRELLA,,,,,,IRIS,VIOLIN,short,resources/sound/catchTrials/audio_control_comp_project12.mp3,60fe828e99235efe5d258412,25,Female,Right handed,2021-07-27_16h33.33.126,MA Experiment 2,2021.1.2,MacIntel,62.5,,,,,,0,20,20,4,1
1.961,response_2,shortValid,BERRY,HEROIN,,,,,,CONCRETE,ENEMY,short,resources/sound/trials/audio_stim_human67.mp3,60fe828e99235efe5d258412,25,Female,Right handed,2021-07-27_16h33.33.126,MA Experiment 2,2021.1.2,MacIntel,62.5,2,11,79,10,1,,,,,
3.029,response_2,longValid,EVENING,TANGERINE,,,,,,BRAINSTORM,GREEN NEEDLE,long,resources/sound/trials/audio_stim_original.mp3,60fe828e99235efe5d258412,25,Female,Right handed,2021-07-27_16h33.33.126,MA Experiment 2,2021.1.2,MacIntel,62.5,2,12,80,33,1,,,,,
1.58,response_2,longValid,ACRE,INSTITUTE,,,,,,CONCRETE,ENEMY,long,resources/sound/trials/audio_stim_human67.mp3,60fe828e99235efe5d258412,25,Female,Right handed,2021-07-27_16h33.33.126,MA Experiment 2,2021.1.2,MacIntel,62.5,2,13,81,27,1,,,,,
2.179,response_2,longFoil,NURSERY,SPECIALIST,,,,,,PARTY,SANCTUARY,short,resources/sound/trials/audio_stim_human50.mp3,60fe828e99235efe5d258412,25,Female,Right handed,2021-07-27_16h33.33.126,MA Experiment 2,2021.1.2,MacIntel,62.5,2,14,82,14,1,,,,,
1.929,response_2,,ANCHOR,ADMIRAL,,,,,,NAVY,RECTANGLE,long,resources/sound/catchTrials/audio_control_human_project06.mp3,60fe828e99235efe5d258412,25,Female,Right handed,2021-07-27_16h33.33.126,MA Experiment 2,2021.1.2,MacIntel,62.5,,,,,,0,31,31,30,1
2.447,response_2,longFoil,SULPHUR,PHOTOGRAPH,,,,,,WHISTLE,TREASURER,long,resources/sound/trials/audio_stim_comp12.mp3,60fe828e99235efe5d258412,25,Female,Right handed,2021-07-27_16h33.33.126,MA Experiment 2,2021.1.2,MacIntel,62.5,2,15,83,20,1,,,,,
1.829,response_2,shortValid,FATHER,MINISTER,,,,,,MINER,EMERALD,short,resources/sound/trials/audio_stim_human6.mp3,60fe828e99235efe5d258412,25,Female,Right handed,2021-07-27_16h33.33.126,MA Experiment 2,2021.1.2,MacIntel,62.5,2,16,84,13,1,,,,,
2.18,response_2,longFoil,LIGHTNING,CHOCOLATE,,,,,,SACRED,GALAXY,short,resources/sound/trials/audio_stim_comp1.mp3,60fe828e99235efe5d258412,25,Female,Right handed,2021-07-27_16h33.33.126,MA Experiment 2,2021.1.2,MacIntel,62.5,2,17,85,7,1,,,,,
1.43,response_2,shortValid,DUEL,VINEGAR,,,,,,BRAINSTORM,GREEN NEEDLE,short,resources/sound/trials/audio_stim_original.mp3,60fe828e99235efe5d258412,25,Female,Right handed,2021-07-27_16h33.33.126,MA Experiment 2,2021.1.2,MacIntel,62.5,2,18,86,16,1,,,,,
1.013,response_2,,NECKLACE,ASBESTOS,,,,,,CORNER,ENGINEER,long,resources/sound/catchTrials/audio_control_comp_project14.mp3,60fe828e99235efe5d258412,25,Female,Right handed,2021-07-27_16h33.33.126,MA Experiment 2,2021.1.2,MacIntel,62.5,,,,,,0,17,17,17,1
1.464,response_2,longFoil,SHEEPSKIN,FIREWOOD,,,,,,RUBBER,PROPERTY,short,resources/sound/trials/audio_stim_human0.mp3,60fe828e99235efe5d258412,25,Female,Right handed,2021-07-27_16h33.33.126,MA Experiment 2,2021.1.2,MacIntel,62.5,2,19,87,12,1,,,,,
3.546,response_2,longFoil,OFFICE,SETTLEMENT,,,,,,ROBBER,RATTLESNAKE,short,resources/sound/trials/audio_stim_human64.mp3,60fe828e99235efe5d258412,25,Female,Right handed,2021-07-27_16h33.33.126,MA Experiment 2,2021.1.2,MacIntel,62.5,2,20,88,15,1,,,,,
2.729,response_1,shortFoil,DIVING,GORILLA,,,,,,RECEIPT,LIMOUSINE,long,resources/sound/trials/audio_stim_comp40.mp3,60fe828e99235efe5d258412,25,Female,Right handed,2021-07-27_16h33.33.126,MA Experiment 2,2021.1.2,MacIntel,62.5,2,21,89,19,1,,,,,
2.747,response_1,shortValid,VESSEL,INTERVIEW,,,,,,RECEIPT,LIMOUSINE,short,resources/sound/trials/audio_stim_comp40.mp3,60fe828e99235efe5d258412,25,Female,Right handed,2021-07-27_16h33.33.126,MA Experiment 2,2021.1.2,MacIntel,62.5,2,22,90,2,1,,,,,
1.731,response_1,,TORTURE,TEMPERATURE,,,,,,VIOLET,LUBRICANT,long,resources/sound/catchTrials/audio_control_human_project07.mp3,60fe828e99235efe5d258412,25,Female,Right handed,2021-07-27_16h33.33.126,MA Experiment 2,2021.1.2,MacIntel,62.5,,,,,,0,24,24,28,1
2.113,response_1,shortFoil,NATIVE,GALLERY,,,,,,DRIZZLE,CARDINAL,long,resources/sound/trials/audio_stim_comp69.mp3,60fe828e99235efe5d258412,25,Female,Right handed,2021-07-27_16h33.33.126,MA Experiment 2,2021.1.2,MacIntel,62.5,2,23,91,17,1,,,,,
2.13,response_1,longFoil,STATION,APPLIANCE,,,,,,ATHLETE,IVORY,long,resources/sound/trials/audio_stim_comp57.mp3,60fe828e99235efe5d258412,25,Female,Right handed,2021-07-27_16h33.33.126,MA Experiment 2,2021.1.2,MacIntel,62.5,2,24,92,22,1,,,,,
2.047,response_2,longValid,WIRE,GINGERBREAD,,,,,,PARTY,SANCTUARY,long,resources/sound/trials/audio_stim_human50.mp3,60fe828e99235efe5d258412,25,Female,Right handed,2021-07-27_16h33.33.126,MA Experiment 2,2021.1.2,MacIntel,62.5,2,25,93,31,1,,,,,
1.729,response_1,shortValid,RUSTY,HANDKERCHIEF,,,,,,RUBBER,PROPERTY,long,resources/sound/trials/audio_stim_human0.mp3,60fe828e99235efe5d258412,25,Female,Right handed,2021-07-27_16h33.33.126,MA Experiment 2,2021.1.2,MacIntel,62.5,2,26,94,29,1,,,,,
1.463,response_2,,HAMSTER,ACROBAT,,,,,,HOBBY,COLONY,short,resources/sound/catchTrials/audio_control_comp_project04.mp3,60fe828e99235efe5d258412,25,Female,Right handed,2021-07-27_16h33.33.126,MA Experiment 2,2021.1.2,MacIntel,62.5,,,,,,0,27,27,2,1
2.913,response_1,shortFoil,HURDLE,RETAILER,,,,,,MARBLE,CUSTOMER,long,resources/sound/trials/audio_stim_comp65.mp3,60fe828e99235efe5d258412,25,Female,Right handed,2021-07-27_16h33.33.126,MA Experiment 2,2021.1.2,MacIntel,62.5,2,27,95,21,1,,,,,
3.196,response_1,shortValid,GRADUATE,MERCURY,,,,,,SACRED,GALAXY,long,resources/sound/trials/audio_stim_comp1.mp3,60fe828e99235efe5d258412,25,Female,Right handed,2021-07-27_16h33.33.126,MA Experiment 2,2021.1.2,MacIntel,62.5,2,28,96,24,1,,,,,
1.446,response_2,longValid,LEADER,ATHLETICS,,,,,,DRIZZLE,CARDINAL,short,resources/sound/trials/audio_stim_comp69.mp3,60fe828e99235efe5d258412,25,Female,Right handed,2021-07-27_16h33.33.126,MA Experiment 2,2021.1.2,MacIntel,62.5,2,29,97,0,1,,,,,
1.28,response_1,longValid,INCOME,FAMILY,,,,,,DAYLIGHT,MATERIAL,short,resources/sound/trials/audio_stim_human42.mp3,60fe828e99235efe5d258412,25,Female,Right handed,2021-07-27_16h33.33.126,MA Experiment 2,2021.1.2,MacIntel,62.5,2,30,98,9,1,,,,,
2.313,response_3,,FOREARM,HONEYMOON,,,,,,VIOLET,LUBRICANT,short,resources/sound/catchTrials/audio_control_human_project07.mp3,60fe828e99235efe5d258412,25,Female,Right handed,2021-07-27_16h33.33.126,MA Experiment 2,2021.1.2,MacIntel,62.5,,,,,,0,3,3,12,1
2.079,response_1,shortFoil,FEVER,MICROSCOPE,,,,,,PAINTER,VEHICLE,long,resources/sound/trials/audio_stim_human47.mp3,60fe828e99235efe5d258412,25,Female,Right handed,2021-07-27_16h33.33.126,MA Experiment 2,2021.1.2,MacIntel,62.5,2,31,99,28,1,,,,,
1.43,response_1,longFoil,UNCLE,COMMITTEE,,,,,,HARDWARE,OVERCOAT,short,resources/sound/trials/audio_stim_human35.mp3,60fe828e99235efe5d258412,25,Female,Right handed,2021-07-27_16h33.33.126,MA Experiment 2,2021.1.2,MacIntel,62.5,2,32,100,8,1,,,,,
2.897,response_1,longValid,VALLEY,CROCODILE,,,,,,MINER,EMERALD,short,resources/sound/trials/audio_stim_comp6.mp3,60fe828e99235efe5d258412,25,Female,Right handed,2021-07-27_16h33.33.126,MA Experiment 2,2021.1.2,MacIntel,62.5,2,33,101,1,1,,,,,
2.696,response_3,longValid,WAFER,LEMONADE,,,,,,WORKER,VISITOR,long,resources/sound/trials/audio_stim_comp17.mp3,60fe828e99235efe5d258412,25,Female,Right handed,2021-07-27_16h33.33.126,MA Experiment 2,2021.1.2,MacIntel,62.5,3,0,102,23,1,,,,,
2.063,response_1,longValid,SEGMENT,LECTURER,,,,,,PAINTER,VEHICLE,short,resources/sound/trials/audio_stim_human47.mp3,60fe828e99235efe5d258412,25,Female,Right handed,2021-07-27_16h33.33.126,MA Experiment 2,2021.1.2,MacIntel,62.5,3,1,103,11,1,,,,,
1.678,response_2,shortFoil,PICTURE,DIAMOND,,,,,,RUBBER,PROPERTY,short,resources/sound/trials/audio_stim_human0.mp3,60fe828e99235efe5d258412,25,Female,Right handed,2021-07-27_16h33.33.126,MA Experiment 2,2021.1.2,MacIntel,62.5,3,2,104,12,1,,,,,
2.13,response_1,,MEDICINE,INDUSTRY,,,,,,CORNER,ENGINEER,long,resources/sound/catchTrials/audio_control_human_project14.mp3,60fe828e99235efe5d258412,25,Female,Right handed,2021-07-27_16h33.33.126,MA Experiment 2,2021.1.2,MacIntel,62.5,,,,,,0,7,7,26,1
1.979,response_2,shortFoil,DIAL,CABINET,,,,,,BRAINSTORM,GREEN NEEDLE,short,resources/sound/trials/audio_stim_original.mp3,60fe828e99235efe5d258412,25,Female,Right handed,2021-07-27_16h33.33.126,MA Experiment 2,2021.1.2,MacIntel,62.5,3,3,105,16,1,,,,,
1.379,response_1,shortValid,MISTRESS,GYMNASTICS,,,,,,ATHLETE,IVORY,long,resources/sound/trials/audio_stim_comp57.mp3,60fe828e99235efe5d258412,25,Female,Right handed,2021-07-27_16h33.33.126,MA Experiment 2,2021.1.2,MacIntel,62.5,3,4,106,22,1,,,,,
1.846,response_2,shortValid,RABBI,AMBULANCE,,,,,,MARBLE,CUSTOMER,long,resources/sound/trials/audio_stim_comp65.mp3,60fe828e99235efe5d258412,25,Female,Right handed,2021-07-27_16h33.33.126,MA Experiment 2,2021.1.2,MacIntel,62.5,3,5,107,21,1,,,,,
1.963,response_2,shortValid,KENNEL,STRAWBERRY,,,,,,WHISTLE,TREASURER,short,resources/sound/trials/audio_stim_comp12.mp3,60fe828e99235efe5d258412,25,Female,Right handed,2021-07-27_16h33.33.126,MA Experiment 2,2021.1.2,MacIntel,62.5,3,6,108,3,1,,,,,
1.997,response_1,,VAPOUR,ICICLE,,,,,,JUGGLER,DANDELION,long,resources/sound/catchTrials/audio_control_human_project09.mp3,60fe828e99235efe5d258412,25,Female,Right handed,2021-07-27_16h33.33.126,MA Experiment 2,2021.1.2,MacIntel,62.5,,,,,,0,5,5,31,1
1.38,response_2,longFoil,SODA,POLICEMAN,,,,,,WORKER,VISITOR,short,resources/sound/trials/audio_stim_comp17.mp3,60fe828e99235efe5d258412,25,Female,Right handed,2021-07-27_16h33.33.126,MA Experiment 2,2021.1.2,MacIntel,62.5,3,7,109,6,1,,,,,
2.064,response_1,longValid,NAPKIN,ABDOMEN,,,,,,HARDWARE,OVERCOAT,short,resources/sound/trials/audio_stim_human35.mp3,60fe828e99235efe5d258412,25,Female,Right handed,2021-07-27_16h33.33.126,MA Experiment 2,2021.1.2,MacIntel,62.5,3,8,110,8,1,,,,,
2.447,response_2,longFoil,INVOICE,MECHANIC,,,,,,CONCRETE,ENEMY,long,resources/sound/trials/audio_stim_human67.mp3,60fe828e99235efe5d258412,25,Female,Right handed,2021-07-27_16h33.33.126,MA Experiment 2,2021.1.2,MacIntel,62.5,3,9,111,27,1,,,,,
2.997,response_2,longFoil,WINDOW,ENAMEL,,,,,,MARBLE,CUSTOMER,short,resources/sound/trials/audio_stim_comp65.mp3,60fe828e99235efe5d258412,25,Female,Right handed,2021-07-27_16h33.33.126,MA Experiment 2,2021.1.2,MacIntel,62.5,3,10,112,4,1,,,,,
2.246,response_2,,NEIGHBOUR,PROFESSOR,,,,,,BORDER,ALGEBRA,short,resources/sound/catchTrials/audio_control_comp_project00.mp3,60fe828e99235efe5d258412,25,Female,Right handed,2021-07-27_16h33.33.126,MA Experiment 2,2021.1.2,MacIntel,62.5,,,,,,0,6,6,0,1
2.929,response_1,longValid,DECOY,CAPITAL,,,,,,DRIZZLE,CARDINAL,long,resources/sound/trials/audio_stim_comp69.mp3,60fe828e99235efe5d258412,25,Female,Right handed,2021-07-27_16h33.33.126,MA Experiment 2,2021.1.2,MacIntel,62.5,3,11,113,17,1,,,,,
1.663,response_2,longFoil,MURDER,CONVENTION,,,,,,MINER,EMERALD,long,resources/sound/trials/audio_stim_human6.mp3,60fe828e99235efe5d258412,25,Female,Right handed,2021-07-27_16h33.33.126,MA Experiment 2,2021.1.2,MacIntel,62.5,3,12,114,30,1,,,,,
1.278,response_2,longFoil,MURAL,FURNITURE,,,,,,DAYLIGHT,MATERIAL,short,resources/sound/trials/audio_stim_human42.mp3,60fe828e99235efe5d258412,25,Female,Right handed,2021-07-27_16h33.33.126,MA Experiment 2,2021.1.2,MacIntel,62.5,3,13,115,9,1,,,,,
3.047,response_2,longValid,LOBSTER,FACTORY,,,,,,WHISTLE,TREASURER,long,resources/sound/trials/audio_stim_comp12.mp3,60fe828e99235efe5d258412,25,Female,Right handed,2021-07-27_16h33.33.126,MA Experiment 2,2021.1.2,MacIntel,62.5,3,14,116,20,1,,,,,
2.529,response_1,,SOFA,CAMERA,,,,,,VIOLET,LUBRICANT,short,resources/sound/catchTrials/audio_control_comp_project07.mp3,60fe828e99235efe5d258412,25,Female,Right handed,2021-07-27_16h33.33.126,MA Experiment 2,2021.1.2,MacIntel,62.5,,,,,,0,18,18,3,1
1.964,response_2,longFoil,CIGAR,FISHERMAN,,,,,,RUBBER,PROPERTY,long,resources/sound/trials/audio_stim_human0.mp3,60fe828e99235efe5d258412,25,Female,Right handed,2021-07-27_16h33.33.126,MA Experiment 2,2021.1.2,MacIntel,62.5,3,15,117,29,1,,,,,
1.247,response_2,longFoil,BISHOP,NEWSPAPER,,,,,,BRAINSTORM,GREEN NEEDLE,long,resources/sound/trials/audio_stim_original.mp3,60fe828e99235efe5d258412,25,Female,Right handed,2021-07-27_16h33.33.126,MA Experiment 2,2021.1.2,MacIntel,62.5,3,16,118,33,1,,,,,
3.48,response_2,longFoil,PATIENT,DISSECTION,,,,,,CONCRETE,ENEMY,short,resources/sound/trials/audio_stim_human67.mp3,60fe828e99235efe5d258412,25,Female,Right handed,2021-07-27_16h33.33.126,MA Experiment 2,2021.1.2,MacIntel,62.5,3,17,119,10,1,,,,,
1.747,response_1,shortFoil,SCOOTER,INFECTION,,,,,,HARDWARE,OVERCOAT,long,resources/sound/trials/audio_stim_human35.mp3,60fe828e99235efe5d258412,25,Female,Right handed,2021-07-27_16h33.33.126,MA Experiment 2,2021.1.2,MacIntel,62.5,3,18,120,25,1,,,,,
2.212,response_3,,EARTHWORM,PHYSICIAN,,,,,,CORNER,ENGINEER,short,resources/sound/catchTrials/audio_control_human_project14.mp3,60fe828e99235efe5d258412,25,Female,Right handed,2021-07-27_16h33.33.126,MA Experiment 2,2021.1.2,MacIntel,62.5,,,,,,0,15,15,10,1
0.597,response_2,shortValid,SADDLE,BEVERAGE,,,,,,DRIZZLE,CARDINAL,short,resources/sound/trials/audio_stim_comp69.mp3,60fe828e99235efe5d258412,25,Female,Right handed,2021-07-27_16h33.33.126,MA Experiment 2,2021.1.2,MacIntel,62.5,3,19,121,0,1,,,,,
2.379,response_2,longFoil,SHOULDER,MESSENGER,,,,,,PAINTER,VEHICLE,long,resources/sound/trials/audio_stim_human47.mp3,60fe828e99235efe5d258412,25,Female,Right handed,2021-07-27_16h33.33.126,MA Experiment 2,2021.1.2,MacIntel,62.5,3,20,122,28,1,,,,,
1.53,response_1,shortFoil,NOVEL,BUTTERFLY,,,,,,ROBBER,RATTLESNAKE,short,resources/sound/trials/audio_stim_human64.mp3,60fe828e99235efe5d258412,25,Female,Right handed,2021-07-27_16h33.33.126,MA Experiment 2,2021.1.2,MacIntel,62.5,3,21,123,15,1,,,,,
1.846,response_3,longFoil,OLIVE,ANTIQUE,,,,,,MINER,EMERALD,short,resources/sound/trials/audio_stim_comp6.mp3,60fe828e99235efe5d258412,25,Female,Right handed,2021-07-27_16h33.33.126,MA Experiment 2,2021.1.2,MacIntel,62.5,3,22,124,1,1,,,,,
3.93,,,MUSCLE,CIGARETTE,,,,,,HOBBY,COLONY,long,resources/sound/catchTrials/audio_control_comp_project04.mp3,60fe828e99235efe5d258412,25,Female,Right handed,2021-07-27_16h33.33.126,MA Experiment 2,2021.1.2,MacIntel,62.5,,,,,,0,16,16,18,1
1.331,response_2,shortValid,LIQUID,NEIGHBOURHOOD,,,,,,PARTY,SANCTUARY,short,resources/sound/trials/audio_stim_human50.mp3,60fe828e99235efe5d258412,25,Female,Right handed,2021-07-27_16h33.33.126,MA Experiment 2,2021.1.2,MacIntel,62.5,3,23,125,14,1,,,,,
3.179,response_1,shortValid,DWELLER,OPENING,,,,,,SACRED,GALAXY,short,resources/sound/trials/audio_stim_comp1.mp3,60fe828e99235efe5d258412,25,Female,Right handed,2021-07-27_16h33.33.126,MA Experiment 2,2021.1.2,MacIntel,62.5,3,24,126,7,1,,,,,
2.98,response_2,shortValid,FERTILE,ORNAMENT,,,,,,PARTY,SANCTUARY,long,resources/sound/trials/audio_stim_human50.mp3,60fe828e99235efe5d258412,25,Female,Right handed,2021-07-27_16h33.33.126,MA Experiment 2,2021.1.2,MacIntel,62.5,3,25,127,31,1,,,,,
1.48,response_2,shortFoil,DOORWAY,ALCOHOL,,,,,,MINER,EMERALD,long,resources/sound/trials/audio_stim_comp6.mp3,60fe828e99235efe5d258412,25,Female,Right handed,2021-07-27_16h33.33.126,MA Experiment 2,2021.1.2,MacIntel,62.5,3,26,128,18,1,,,,,
1.847,response_2,,MORNING,INSTRUCTOR,,,,,,ICY,JITTERBUG,short,resources/sound/catchTrials/audio_control_comp_project08.mp3,60fe828e99235efe5d258412,25,Female,Right handed,2021-07-27_16h33.33.126,MA Experiment 2,2021.1.2,MacIntel,62.5,,,,,,0,8,8,7,1
2.697,response_3,longFoil,HARBOUR,DESTROYER,,,,,,MINER,EMERALD,short,resources/sound/trials/audio_stim_human6.mp3,60fe828e99235efe5d258412,25,Female,Right handed,2021-07-27_16h33.33.126,MA Experiment 2,2021.1.2,MacIntel,62.5,3,27,129,13,1,,,,,
1.597,response_1,longValid,MOONLIGHT,GOVERNMENT,,,,,,ATHLETE,IVORY,short,resources/sound/trials/audio_stim_comp57.mp3,60fe828e99235efe5d258412,25,Female,Right handed,2021-07-27_16h33.33.126,MA Experiment 2,2021.1.2,MacIntel,62.5,3,28,130,5,1,,,,,
0.762,response_2,longValid,DANCER,MOLECULE,,,,,,RECEIPT,LIMOUSINE,long,resources/sound/trials/audio_stim_comp40.mp3,60fe828e99235efe5d258412,25,Female,Right handed,2021-07-27_16h33.33.126,MA Experiment 2,2021.1.2,MacIntel,62.5,3,29,131,19,1,,,,,
1.763,response_1,shortValid,MEASLES,POLIO,,,,,,DAYLIGHT,MATERIAL,long,resources/sound/trials/audio_stim_human42.mp3,60fe828e99235efe5d258412,25,Female,Right handed,2021-07-27_16h33.33.126,MA Experiment 2,2021.1.2,MacIntel,62.5,3,30,132,26,1,,,,,
1.93,response_1,,PODIUM,PROPELLER,,,,,,VIOLET,LUBRICANT,long,resources/sound/catchTrials/audio_control_comp_project07.mp3,60fe828e99235efe5d258412,25,Female,Right handed,2021-07-27_16h33.33.126,MA Experiment 2,2021.1.2,MacIntel,62.5,,,,,,0,1,1,19,1
1.847,response_2,longValid,BUTTER,OXYGEN,,,,,,SACRED,GALAXY,long,resources/sound/trials/audio_stim_comp1.mp3,60fe828e99235efe5d258412,25,Female,Right handed,2021-07-27_16h33.33.126,MA Experiment 2,2021.1.2,MacIntel,62.5,3,31,133,24,1,,,,,
1.313,response_2,longValid,TRAITOR,POTATO,,,,,,ROBBER,RATTLESNAKE,long,resources/sound/trials/audio_stim_human64.mp3,60fe828e99235efe5d258412,25,Female,Right handed,2021-07-27_16h33.33.126,MA Experiment 2,2021.1.2,MacIntel,62.5,3,32,134,32,1,,,,,
2.147,response_2,longValid,POLO,ENVELOPE,,,,,,RECEIPT,LIMOUSINE,short,resources/sound/trials/audio_stim_comp40.mp3,60fe828e99235efe5d258412,25,Female,Right handed,2021-07-27_16h33.33.126,MA Experiment 2,2021.1.2,MacIntel,62.5,3,33,135,2,1,,,,,
