response.time,response,cueTarget,rand_foil_1,rand_foil_2,prac_trials.thisRepN,prac_trials.thisTrialN,prac_trials.thisN,prac_trials.thisIndex,prac_trials.ran,word_1,word_2,cue,file_path,participant,age,gender,handedness,date,expName,psychopyVersion,OS,frameRate,trials.thisRepN,trials.thisTrialN,trials.thisN,trials.thisIndex,trials.ran,catchTrials.thisRepN,catchTrials.thisTrialN,catchTrials.thisN,catchTrials.thisIndex,catchTrials.ran
1.8108,response_2,longFoil,NOVEL,CHOCOLATE,0,0,0,9,1,GRUMPY,LABYRINTH,long,resources/sound/prac_trials/practice_cue_human9.mp3,60fedb798cf3ef1b5efca46b,19,Female,Left handed,2021-07-26_20h50.21.913,MA Experiment 2,2021.1.2,Win32,58.56172406,,,,,,,,,,
1.1281,response_2,shortValid,SEGMENT,SETTLEMENT,0,1,1,6,1,VACANT,SALVATION,long,resources/sound/prac_trials/practice_cue6.mp3,60fedb798cf3ef1b5efca46b,19,Female,Left handed,2021-07-26_20h50.21.913,MA Experiment 2,2021.1.2,Win32,58.56172406,,,,,,,,,,
1.4948,response_1,shortFoil,CRYSTAL,ATTENDANT,0,2,2,11,1,KETCHUP,GONDOLA,long,resources/sound/prac_trials/practice_cue_human11.mp3,60fedb798cf3ef1b5efca46b,19,Female,Left handed,2021-07-26_20h50.21.913,MA Experiment 2,2021.1.2,Win32,58.56172406,,,,,,,,,,
,,shortFoil,DOORWAY,DISSECTION,0,3,3,4,1,FIZZY,ELECTRIC,short,resources/sound/prac_trials/practice_cue4.mp3,60fedb798cf3ef1b5efca46b,19,Female,Left handed,2021-07-26_20h50.21.913,MA Experiment 2,2021.1.2,Win32,58.56172406,,,,,,,,,,
1.9119,response_1,shortFoil,GRADUATE,CARNATION,0,4,4,7,1,BUCKLE,WALLABY,long,resources/sound/prac_trials/practice_cue_human7.mp3,60fedb798cf3ef1b5efca46b,19,Female,Left handed,2021-07-26_20h50.21.913,MA Experiment 2,2021.1.2,Win32,58.56172406,,,,,,,,,,
3.346,response_2,shortFoil,NURSERY,TANGERINE,0,5,5,2,1,RECENT,TOBACCO,short,resources/sound/prac_trials/practice_cue2.mp3,60fedb798cf3ef1b5efca46b,19,Female,Left handed,2021-07-26_20h50.21.913,MA Experiment 2,2021.1.2,Win32,58.56172406,,,,,,,,,,
1.8614,response_1,longFoil,PIPING,POTATO,0,6,6,8,1,DAGGER,EMPHASIS,long,resources/sound/prac_trials/practice_cue8.mp3,60fedb798cf3ef1b5efca46b,19,Female,Left handed,2021-07-26_20h50.21.913,MA Experiment 2,2021.1.2,Win32,58.56172406,,,,,,,,,,
1.5454,response_2,longValid,ANCHOR,INTERVIEW,0,7,7,3,1,EAGER,QUALIFY,short,resources/sound/prac_trials/practice_cue_human3.mp3,60fedb798cf3ef1b5efca46b,19,Female,Left handed,2021-07-26_20h50.21.913,MA Experiment 2,2021.1.2,Win32,58.56172406,,,,,,,,,,
3.2295,response_2,longValid,WINDOW,GYMNASTICS,0,8,8,1,1,CABLE,REPUBLIC,short,resources/sound/prac_trials/practice_cue_human1.mp3,60fedb798cf3ef1b5efca46b,19,Female,Left handed,2021-07-26_20h50.21.913,MA Experiment 2,2021.1.2,Win32,58.56172406,,,,,,,,,,
1.9102,response_2,longValid,SHOULDER,ATHLETICS,0,9,9,0,1,AARDVARK,FALLACY,short,resources/sound/prac_trials/practice_cue0.mp3,60fedb798cf3ef1b5efca46b,19,Female,Left handed,2021-07-26_20h50.21.913,MA Experiment 2,2021.1.2,Win32,58.56172406,,,,,,,,,,
1.9953,response_2,shortValid,TEMPLE,INSTRUMENT,0,10,10,5,1,NONSENSE,OASIS,short,resources/sound/prac_trials/practice_cue_human5.mp3,60fedb798cf3ef1b5efca46b,19,Female,Left handed,2021-07-26_20h50.21.913,MA Experiment 2,2021.1.2,Win32,58.56172406,,,,,,,,,,
1.763,response_1,shortFoil,CIGAR,PROPELLER,0,11,11,10,1,SAFFRON,JAVELIN,long,resources/sound/prac_trials/practice_cue10.mp3,60fedb798cf3ef1b5efca46b,19,Female,Left handed,2021-07-26_20h50.21.913,MA Experiment 2,2021.1.2,Win32,58.56172406,,,,,,,,,,
1.2456,response_1,longValid,HAMMER,MINISTER,,,,,,MARBLE,CUSTOMER,long,resources/sound/trials/audio_stim_comp65.mp3,60fedb798cf3ef1b5efca46b,19,Female,Left handed,2021-07-26_20h50.21.913,MA Experiment 2,2021.1.2,Win32,58.56172406,0,0,0,21,1,,,,,
1.712,response_1,shortFoil,RUSTY,LECTURER,,,,,,BRAINSTORM,GREEN NEEDLE,long,resources/sound/trials/audio_stim_original.mp3,60fedb798cf3ef1b5efca46b,19,Female,Left handed,2021-07-26_20h50.21.913,MA Experiment 2,2021.1.2,Win32,58.56172406,0,1,1,33,1,,,,,
1.7791,response_1,longValid,SCOOTER,CITIZEN,,,,,,SACRED,GALAXY,long,resources/sound/trials/audio_stim_comp1.mp3,60fedb798cf3ef1b5efca46b,19,Female,Left handed,2021-07-26_20h50.21.913,MA Experiment 2,2021.1.2,Win32,58.56172406,0,2,2,24,1,,,,,
1.2126,response_2,,SULPHUR,CROCODILE,,,,,,SPINACH,APRICOT,long,resources/sound/catchTrials/audio_control_comp_project18.mp3,60fedb798cf3ef1b5efca46b,19,Female,Left handed,2021-07-26_20h50.21.913,MA Experiment 2,2021.1.2,Win32,58.56172406,,,,,,0,26,26,21,1
1.2278,response_2,longFoil,TRAITOR,AMMONIA,,,,,,ROBBER,RATTLESNAKE,long,resources/sound/trials/audio_stim_human64.mp3,60fedb798cf3ef1b5efca46b,19,Female,Left handed,2021-07-26_20h50.21.913,MA Experiment 2,2021.1.2,Win32,58.56172406,0,3,3,32,1,,,,,
1.1625,response_2,shortFoil,HURDLE,MECHANIC,,,,,,WORKER,VISITOR,short,resources/sound/trials/audio_stim_comp17.mp3,60fedb798cf3ef1b5efca46b,19,Female,Left handed,2021-07-26_20h50.21.913,MA Experiment 2,2021.1.2,Win32,58.56172406,0,4,4,6,1,,,,,
3.1779,,longFoil,WIRE,DESTROYER,,,,,,WHISTLE,TREASURER,short,resources/sound/trials/audio_stim_comp12.mp3,60fedb798cf3ef1b5efca46b,19,Female,Left handed,2021-07-26_20h50.21.913,MA Experiment 2,2021.1.2,Win32,58.56172406,0,5,5,3,1,,,,,
1.8291,response_2,shortValid,SHEEPSKIN,INSTITUTE,,,,,,DAYLIGHT,MATERIAL,short,resources/sound/trials/audio_stim_human42.mp3,60fedb798cf3ef1b5efca46b,19,Female,Left handed,2021-07-26_20h50.21.913,MA Experiment 2,2021.1.2,Win32,58.56172406,0,6,6,9,1,,,,,
1.3473,response_1,,WRITING,INJURY,,,,,,VIOLET,LUBRICANT,short,resources/sound/catchTrials/audio_control_human_project07.mp3,60fedb798cf3ef1b5efca46b,19,Female,Left handed,2021-07-26_20h50.21.913,MA Experiment 2,2021.1.2,Win32,58.56172406,,,,,,0,4,4,12,1
1.1496,response_2,shortFoil,CEREAL,FIREWOOD,,,,,,PARTY,SANCTUARY,short,resources/sound/trials/audio_stim_human50.mp3,60fedb798cf3ef1b5efca46b,19,Female,Left handed,2021-07-26_20h50.21.913,MA Experiment 2,2021.1.2,Win32,58.56172406,0,7,7,14,1,,,,,
1.7109,response_2,shortFoil,PERSON,POLIO,,,,,,RUBBER,PROPERTY,short,resources/sound/trials/audio_stim_human0.mp3,60fedb798cf3ef1b5efca46b,19,Female,Left handed,2021-07-26_20h50.21.913,MA Experiment 2,2021.1.2,Win32,58.56172406,0,8,8,12,1,,,,,
1.9452,response_2,shortValid,PICTURE,POLICEMAN,,,,,,HARDWARE,OVERCOAT,short,resources/sound/trials/audio_stim_human35.mp3,60fedb798cf3ef1b5efca46b,19,Female,Left handed,2021-07-26_20h50.21.913,MA Experiment 2,2021.1.2,Win32,58.56172406,0,9,9,8,1,,,,,
1.6663,response_1,shortValid,RABBI,GRASSHOPPER,,,,,,ATHLETE,IVORY,short,resources/sound/trials/audio_stim_comp57.mp3,60fedb798cf3ef1b5efca46b,19,Female,Left handed,2021-07-26_20h50.21.913,MA Experiment 2,2021.1.2,Win32,58.56172406,0,10,10,5,1,,,,,
1.8666,response_1,,VAPOUR,CANDLELIGHT,,,,,,POISON,REVOLVER,short,resources/sound/catchTrials/audio_control_human_project01.mp3,60fedb798cf3ef1b5efca46b,19,Female,Left handed,2021-07-26_20h50.21.913,MA Experiment 2,2021.1.2,Win32,58.56172406,,,,,,0,21,21,9,1
1.8462,response_2,longFoil,NECKLACE,INDUSTRY,,,,,,CONCRETE,ENEMY,short,resources/sound/trials/audio_stim_human67.mp3,60fedb798cf3ef1b5efca46b,19,Female,Left handed,2021-07-26_20h50.21.913,MA Experiment 2,2021.1.2,Win32,58.56172406,0,11,11,10,1,,,,,
1.5796,response_1,longFoil,PIANO,ENVELOPE,,,,,,SACRED,GALAXY,short,resources/sound/trials/audio_stim_comp1.mp3,60fedb798cf3ef1b5efca46b,19,Female,Left handed,2021-07-26_20h50.21.913,MA Experiment 2,2021.1.2,Win32,58.56172406,0,12,12,7,1,,,,,
1.429,response_1,shortFoil,TWEEZER,UMBRELLA,,,,,,DRIZZLE,CARDINAL,short,resources/sound/trials/audio_stim_comp69.mp3,60fedb798cf3ef1b5efca46b,19,Female,Left handed,2021-07-26_20h50.21.913,MA Experiment 2,2021.1.2,Win32,58.56172406,0,13,13,0,1,,,,,
1.7645,response_1,longFoil,FAIRY,ASBESTOS,,,,,,DRIZZLE,CARDINAL,long,resources/sound/trials/audio_stim_comp69.mp3,60fedb798cf3ef1b5efca46b,19,Female,Left handed,2021-07-26_20h50.21.913,MA Experiment 2,2021.1.2,Win32,58.56172406,0,14,14,17,1,,,,,
1.78,response_1,,SOFA,HOSPITAL,,,,,,VIOLET,LUBRICANT,long,resources/sound/catchTrials/audio_control_comp_project07.mp3,60fedb798cf3ef1b5efca46b,19,Female,Left handed,2021-07-26_20h50.21.913,MA Experiment 2,2021.1.2,Win32,58.56172406,,,,,,0,11,11,19,1
1.5162,response_2,shortValid,NATIVE,BEVERAGE,,,,,,MARBLE,CUSTOMER,short,resources/sound/trials/audio_stim_comp65.mp3,60fedb798cf3ef1b5efca46b,19,Female,Left handed,2021-07-26_20h50.21.913,MA Experiment 2,2021.1.2,Win32,58.56172406,0,15,15,4,1,,,,,
1.6133,response_1,longFoil,KERNEL,INFECTION,,,,,,DAYLIGHT,MATERIAL,long,resources/sound/trials/audio_stim_human42.mp3,60fedb798cf3ef1b5efca46b,19,Female,Left handed,2021-07-26_20h50.21.913,MA Experiment 2,2021.1.2,Win32,58.56172406,0,16,16,26,1,,,,,
1.6134,response_2,shortFoil,MEDICINE,NEWSPAPER,,,,,,RECEIPT,LIMOUSINE,long,resources/sound/trials/audio_stim_comp40.mp3,60fedb798cf3ef1b5efca46b,19,Female,Left handed,2021-07-26_20h50.21.913,MA Experiment 2,2021.1.2,Win32,58.56172406,0,17,17,19,1,,,,,
1.3289,response_1,longFoil,PODIUM,HONEYMOON,,,,,,HARDWARE,OVERCOAT,long,resources/sound/trials/audio_stim_human35.mp3,60fedb798cf3ef1b5efca46b,19,Female,Left handed,2021-07-26_20h50.21.913,MA Experiment 2,2021.1.2,Win32,58.56172406,0,18,18,25,1,,,,,
2.2792,response_1,,MISTRESS,ACROBAT,,,,,,VIOLET,LUBRICANT,short,resources/sound/catchTrials/audio_control_comp_project07.mp3,60fedb798cf3ef1b5efca46b,19,Female,Left handed,2021-07-26_20h50.21.913,MA Experiment 2,2021.1.2,Win32,58.56172406,,,,,,0,18,18,3,1
1.0454,response_1,shortValid,PRINCESS,MESSENGER,,,,,,MINER,EMERALD,long,resources/sound/trials/audio_stim_comp6.mp3,60fedb798cf3ef1b5efca46b,19,Female,Left handed,2021-07-26_20h50.21.913,MA Experiment 2,2021.1.2,Win32,58.56172406,0,19,19,18,1,,,,,
2.524,response_2,longValid,FOREARM,MINERAL,,,,,,PAINTER,VEHICLE,long,resources/sound/trials/audio_stim_human47.mp3,60fedb798cf3ef1b5efca46b,19,Female,Left handed,2021-07-26_20h50.21.913,MA Experiment 2,2021.1.2,Win32,58.56172406,0,20,20,28,1,,,,,
1.8969,response_2,longFoil,MUSCLE,ALPHABET,,,,,,PAINTER,VEHICLE,short,resources/sound/trials/audio_stim_human47.mp3,60fedb798cf3ef1b5efca46b,19,Female,Left handed,2021-07-26_20h50.21.913,MA Experiment 2,2021.1.2,Win32,58.56172406,0,21,21,11,1,,,,,
1.5294,response_2,longFoil,FATHER,NEIGHBOURHOOD,,,,,,PARTY,SANCTUARY,long,resources/sound/trials/audio_stim_human50.mp3,60fedb798cf3ef1b5efca46b,19,Female,Left handed,2021-07-26_20h50.21.913,MA Experiment 2,2021.1.2,Win32,58.56172406,0,22,22,31,1,,,,,
1.8127,response_2,,BERRY,ICICLE,,,,,,IRIS,VIOLIN,short,resources/sound/catchTrials/audio_control_human_project12.mp3,60fedb798cf3ef1b5efca46b,19,Female,Left handed,2021-07-26_20h50.21.913,MA Experiment 2,2021.1.2,Win32,58.56172406,,,,,,0,29,29,8,1
0.9961,response_1,shortValid,DIAL,RETAILER,,,,,,MINER,EMERALD,short,resources/sound/trials/audio_stim_comp6.mp3,60fedb798cf3ef1b5efca46b,19,Female,Left handed,2021-07-26_20h50.21.913,MA Experiment 2,2021.1.2,Win32,58.56172406,0,23,23,1,1,,,,,
1.4962,response_2,shortFoil,GIRDLE,OPENING,,,,,,RUBBER,PROPERTY,long,resources/sound/trials/audio_stim_human0.mp3,60fedb798cf3ef1b5efca46b,19,Female,Left handed,2021-07-26_20h50.21.913,MA Experiment 2,2021.1.2,Win32,58.56172406,0,24,24,29,1,,,,,
1.7124,response_2,longValid,BEETLE,BUTTERFLY,,,,,,BRAINSTORM,GREEN NEEDLE,short,resources/sound/trials/audio_stim_original.mp3,60fedb798cf3ef1b5efca46b,19,Female,Left handed,2021-07-26_20h50.21.913,MA Experiment 2,2021.1.2,Win32,58.56172406,0,25,25,16,1,,,,,
1.1795,response_2,longFoil,STOCKING,FACTORY,,,,,,RECEIPT,LIMOUSINE,short,resources/sound/trials/audio_stim_comp40.mp3,60fedb798cf3ef1b5efca46b,19,Female,Left handed,2021-07-26_20h50.21.913,MA Experiment 2,2021.1.2,Win32,58.56172406,0,26,26,2,1,,,,,
1.3126,response_2,,VALLEY,EMULSION,,,,,,IRIS,VIOLIN,short,resources/sound/catchTrials/audio_control_comp_project12.mp3,60fedb798cf3ef1b5efca46b,19,Female,Left handed,2021-07-26_20h50.21.913,MA Experiment 2,2021.1.2,Win32,58.56172406,,,,,,0,24,24,4,1
1.7122,response_2,longFoil,INCOME,CIGARETTE,,,,,,WHISTLE,TREASURER,long,resources/sound/trials/audio_stim_comp12.mp3,60fedb798cf3ef1b5efca46b,19,Female,Left handed,2021-07-26_20h50.21.913,MA Experiment 2,2021.1.2,Win32,58.56172406,0,27,27,20,1,,,,,
1.7284,response_1,shortFoil,NAPKIN,ENAMEL,,,,,,MINER,EMERALD,short,resources/sound/trials/audio_stim_human6.mp3,60fedb798cf3ef1b5efca46b,19,Female,Left handed,2021-07-26_20h50.21.913,MA Experiment 2,2021.1.2,Win32,58.56172406,0,28,28,13,1,,,,,
2.984,response_3,longValid,UNCLE,MOSQUITO,,,,,,CONCRETE,ENEMY,long,resources/sound/trials/audio_stim_human67.mp3,60fedb798cf3ef1b5efca46b,19,Female,Left handed,2021-07-26_20h50.21.913,MA Experiment 2,2021.1.2,Win32,58.56172406,0,29,29,27,1,,,,,
1.5646,response_2,shortFoil,SINGER,CLARINET,,,,,,WORKER,VISITOR,long,resources/sound/trials/audio_stim_comp17.mp3,60fedb798cf3ef1b5efca46b,19,Female,Left handed,2021-07-26_20h50.21.913,MA Experiment 2,2021.1.2,Win32,58.56172406,0,30,30,23,1,,,,,
1.1105,response_2,,LIQUID,PHOTOGRAPH,,,,,,BORDER,ALGEBRA,short,resources/sound/catchTrials/audio_control_comp_project00.mp3,60fedb798cf3ef1b5efca46b,19,Female,Left handed,2021-07-26_20h50.21.913,MA Experiment 2,2021.1.2,Win32,58.56172406,,,,,,0,8,8,0,1
1.9293,response_1,shortValid,DUEL,SAXOPHONE,,,,,,ATHLETE,IVORY,long,resources/sound/trials/audio_stim_comp57.mp3,60fedb798cf3ef1b5efca46b,19,Female,Left handed,2021-07-26_20h50.21.913,MA Experiment 2,2021.1.2,Win32,58.56172406,0,31,31,22,1,,,,,
1.7466,response_1,shortFoil,TORTURE,HEROIN,,,,,,MINER,EMERALD,long,resources/sound/trials/audio_stim_human6.mp3,60fedb798cf3ef1b5efca46b,19,Female,Left handed,2021-07-26_20h50.21.913,MA Experiment 2,2021.1.2,Win32,58.56172406,0,32,32,30,1,,,,,
1.4629,response_1,longValid,NEIGHBOUR,INSTRUCTOR,,,,,,ROBBER,RATTLESNAKE,short,resources/sound/trials/audio_stim_human64.mp3,60fedb798cf3ef1b5efca46b,19,Female,Left handed,2021-07-26_20h50.21.913,MA Experiment 2,2021.1.2,Win32,58.56172406,0,33,33,15,1,,,,,
1.4603,response_2,shortValid,CAPTAIN,REFEREE,,,,,,MARBLE,CUSTOMER,long,resources/sound/trials/audio_stim_comp65.mp3,60fedb798cf3ef1b5efca46b,19,Female,Left handed,2021-07-26_20h50.21.913,MA Experiment 2,2021.1.2,Win32,58.56172406,1,0,34,21,1,,,,,
1.2416,response_2,longFoil,SODA,AMBULANCE,,,,,,ATHLETE,IVORY,short,resources/sound/trials/audio_stim_comp57.mp3,60fedb798cf3ef1b5efca46b,19,Female,Left handed,2021-07-26_20h50.21.913,MA Experiment 2,2021.1.2,Win32,58.56172406,1,1,35,5,1,,,,,
1.2642,response_1,shortValid,KETTLE,SPECIALIST,,,,,,MINER,EMERALD,long,resources/sound/trials/audio_stim_human6.mp3,60fedb798cf3ef1b5efca46b,19,Female,Left handed,2021-07-26_20h50.21.913,MA Experiment 2,2021.1.2,Win32,58.56172406,1,2,36,30,1,,,,,
1.7101,response_2,,EVENING,PHYSICIAN,,,,,,SPINACH,APRICOT,short,resources/sound/catchTrials/audio_control_comp_project18.mp3,60fedb798cf3ef1b5efca46b,19,Female,Left handed,2021-07-26_20h50.21.913,MA Experiment 2,2021.1.2,Win32,58.56172406,,,,,,0,15,15,5,1
1.5161,response_2,shortValid,TUMBLE,MERCURY,,,,,,HARDWARE,OVERCOAT,long,resources/sound/trials/audio_stim_human35.mp3,60fedb798cf3ef1b5efca46b,19,Female,Left handed,2021-07-26_20h50.21.913,MA Experiment 2,2021.1.2,Win32,58.56172406,1,3,37,25,1,,,,,
1.2626,response_2,shortFoil,CABIN,ADMIRAL,,,,,,ROBBER,RATTLESNAKE,long,resources/sound/trials/audio_stim_human64.mp3,60fedb798cf3ef1b5efca46b,19,Female,Left handed,2021-07-26_20h50.21.913,MA Experiment 2,2021.1.2,Win32,58.56172406,1,4,38,32,1,,,,,
1.3678,response_1,longFoil,KENNEL,HURRICANE,,,,,,MINER,EMERALD,short,resources/sound/trials/audio_stim_human6.mp3,60fedb798cf3ef1b5efca46b,19,Female,Left handed,2021-07-26_20h50.21.913,MA Experiment 2,2021.1.2,Win32,58.56172406,1,5,39,13,1,,,,,
1.6299,response_2,shortValid,ACRE,FISHERMAN,,,,,,RUBBER,PROPERTY,short,resources/sound/trials/audio_stim_human0.mp3,60fedb798cf3ef1b5efca46b,19,Female,Left handed,2021-07-26_20h50.21.913,MA Experiment 2,2021.1.2,Win32,58.56172406,1,6,40,12,1,,,,,
1.3915,response_1,,OLIVE,JANITOR,,,,,,JUGGLER,DANDELION,long,resources/sound/catchTrials/audio_control_human_project09.mp3,60fedb798cf3ef1b5efca46b,19,Female,Left handed,2021-07-26_20h50.21.913,MA Experiment 2,2021.1.2,Win32,58.56172406,,,,,,0,6,6,31,1
2.379,response_1,shortFoil,DANCER,ABDOMEN,,,,,,DRIZZLE,CARDINAL,long,resources/sound/trials/audio_stim_comp69.mp3,60fedb798cf3ef1b5efca46b,19,Female,Left handed,2021-07-26_20h50.21.913,MA Experiment 2,2021.1.2,Win32,58.56172406,1,7,41,17,1,,,,,
1.0666,response_2,shortValid,DWELLER,CINNAMON,,,,,,ROBBER,RATTLESNAKE,short,resources/sound/trials/audio_stim_human64.mp3,60fedb798cf3ef1b5efca46b,19,Female,Left handed,2021-07-26_20h50.21.913,MA Experiment 2,2021.1.2,Win32,58.56172406,1,8,42,15,1,,,,,
1.8002,response_2,longValid,EARTHWORM,AVENUE,,,,,,WHISTLE,TREASURER,short,resources/sound/trials/audio_stim_comp12.mp3,60fedb798cf3ef1b5efca46b,19,Female,Left handed,2021-07-26_20h50.21.913,MA Experiment 2,2021.1.2,Win32,58.56172406,1,9,43,3,1,,,,,
1.2503,response_1,longValid,CANTEEN,FURNITURE,,,,,,MINER,EMERALD,short,resources/sound/trials/audio_stim_comp6.mp3,60fedb798cf3ef1b5efca46b,19,Female,Left handed,2021-07-26_20h50.21.913,MA Experiment 2,2021.1.2,Win32,58.56172406,1,10,44,1,1,,,,,
1.2794,response_2,,CHIPMUNK,CONVENTION,,,,,,JOURNAL,ROBBERY,long,resources/sound/catchTrials/audio_control_human_project02.mp3,60fedb798cf3ef1b5efca46b,19,Female,Left handed,2021-07-26_20h50.21.913,MA Experiment 2,2021.1.2,Win32,58.56172406,,,,,,0,2,2,29,1
1.2794,response_2,longFoil,DECOY,APPLIANCE,,,,,,HARDWARE,OVERCOAT,short,resources/sound/trials/audio_stim_human35.mp3,60fedb798cf3ef1b5efca46b,19,Female,Left handed,2021-07-26_20h50.21.913,MA Experiment 2,2021.1.2,Win32,58.56172406,1,11,45,8,1,,,,,
1.8463,response_2,shortValid,INVOICE,CAMERA,,,,,,RECEIPT,LIMOUSINE,long,resources/sound/trials/audio_stim_comp40.mp3,60fedb798cf3ef1b5efca46b,19,Female,Left handed,2021-07-26_20h50.21.913,MA Experiment 2,2021.1.2,Win32,58.56172406,1,12,46,19,1,,,,,
2.1468,response_2,shortFoil,FERTILE,CORRIDOR,,,,,,CONCRETE,ENEMY,short,resources/sound/trials/audio_stim_human67.mp3,60fedb798cf3ef1b5efca46b,19,Female,Left handed,2021-07-26_20h50.21.913,MA Experiment 2,2021.1.2,Win32,58.56172406,1,13,47,10,1,,,,,
1.7964,response_2,shortValid,MURAL,MONUMENT,,,,,,WORKER,VISITOR,short,resources/sound/trials/audio_stim_comp17.mp3,60fedb798cf3ef1b5efca46b,19,Female,Left handed,2021-07-26_20h50.21.913,MA Experiment 2,2021.1.2,Win32,58.56172406,1,14,48,6,1,,,,,
1.546,response_2,,LIGHTNING,CATHEDRAL,,,,,,ICY,JITTERBUG,short,resources/sound/catchTrials/audio_control_comp_project08.mp3,60fedb798cf3ef1b5efca46b,19,Female,Left handed,2021-07-26_20h50.21.913,MA Experiment 2,2021.1.2,Win32,58.56172406,,,,,,0,3,3,7,1
1.3613,response_1,longValid,BISHOP,FAMILY,,,,,,BRAINSTORM,GREEN NEEDLE,long,resources/sound/trials/audio_stim_original.mp3,60fedb798cf3ef1b5efca46b,19,Female,Left handed,2021-07-26_20h50.21.913,MA Experiment 2,2021.1.2,Win32,58.56172406,1,15,49,33,1,,,,,
2.928,response_1,shortFoil,MORNING,GORILLA,,,,,,PAINTER,VEHICLE,short,resources/sound/trials/audio_stim_human47.mp3,60fedb798cf3ef1b5efca46b,19,Female,Left handed,2021-07-26_20h50.21.913,MA Experiment 2,2021.1.2,Win32,58.56172406,1,16,50,11,1,,,,,
0.9964,response_1,longValid,HARBOUR,VINEGAR,,,,,,DRIZZLE,CARDINAL,short,resources/sound/trials/audio_stim_comp69.mp3,60fedb798cf3ef1b5efca46b,19,Female,Left handed,2021-07-26_20h50.21.913,MA Experiment 2,2021.1.2,Win32,58.56172406,1,17,51,0,1,,,,,
0.8785,response_2,shortValid,BUTTER,DIAMOND,,,,,,PARTY,SANCTUARY,short,resources/sound/trials/audio_stim_human50.mp3,60fedb798cf3ef1b5efca46b,19,Female,Left handed,2021-07-26_20h50.21.913,MA Experiment 2,2021.1.2,Win32,58.56172406,1,18,52,14,1,,,,,
1.5456,response_2,,JURY,CABINET,,,,,,CORNER,ENGINEER,short,resources/sound/catchTrials/audio_control_comp_project14.mp3,60fedb798cf3ef1b5efca46b,19,Female,Left handed,2021-07-26_20h50.21.913,MA Experiment 2,2021.1.2,Win32,58.56172406,,,,,,0,0,0,1,1
1.3675,response_1,longValid,FEVER,MICROSCOPE,,,,,,SACRED,GALAXY,short,resources/sound/trials/audio_stim_comp1.mp3,60fedb798cf3ef1b5efca46b,19,Female,Left handed,2021-07-26_20h50.21.913,MA Experiment 2,2021.1.2,Win32,58.56172406,1,19,53,7,1,,,,,
1.8115,response_2,longFoil,MURDER,ORNAMENT,,,,,,PAINTER,VEHICLE,long,resources/sound/trials/audio_stim_human47.mp3,60fedb798cf3ef1b5efca46b,19,Female,Left handed,2021-07-26_20h50.21.913,MA Experiment 2,2021.1.2,Win32,58.56172406,1,20,54,28,1,,,,,
1.2779,response_2,shortFoil,OFFICE,PROJECTOR,,,,,,DAYLIGHT,MATERIAL,long,resources/sound/trials/audio_stim_human42.mp3,60fedb798cf3ef1b5efca46b,19,Female,Left handed,2021-07-26_20h50.21.913,MA Experiment 2,2021.1.2,Win32,58.56172406,1,21,55,26,1,,,,,
1.2289,response_4,longFoil,VILLAGE,HEADQUARTERS,,,,,,MINER,EMERALD,long,resources/sound/trials/audio_stim_comp6.mp3,60fedb798cf3ef1b5efca46b,19,Female,Left handed,2021-07-26_20h50.21.913,MA Experiment 2,2021.1.2,Win32,58.56172406,1,22,56,18,1,,,,,
1.2275,response_2,,POLO,PROFESSOR,,,,,,JOURNAL,ROBBERY,short,resources/sound/catchTrials/audio_control_human_project02.mp3,60fedb798cf3ef1b5efca46b,19,Female,Left handed,2021-07-26_20h50.21.913,MA Experiment 2,2021.1.2,Win32,58.56172406,,,,,,0,19,19,13,1
1.5793,response_1,shortValid,STATION,TEMPERATURE,,,,,,BRAINSTORM,GREEN NEEDLE,short,resources/sound/trials/audio_stim_original.mp3,60fedb798cf3ef1b5efca46b,19,Female,Left handed,2021-07-26_20h50.21.913,MA Experiment 2,2021.1.2,Win32,58.56172406,1,23,57,16,1,,,,,
3.5794,,longValid,VESSEL,HANDKERCHIEF,,,,,,DAYLIGHT,MATERIAL,short,resources/sound/trials/audio_stim_human42.mp3,60fedb798cf3ef1b5efca46b,19,Female,Left handed,2021-07-26_20h50.21.913,MA Experiment 2,2021.1.2,Win32,58.56172406,1,24,58,9,1,,,,,
1.5108,response_2,longFoil,MEASLES,GOVERNMENT,,,,,,CONCRETE,ENEMY,long,resources/sound/trials/audio_stim_human67.mp3,60fedb798cf3ef1b5efca46b,19,Female,Left handed,2021-07-26_20h50.21.913,MA Experiment 2,2021.1.2,Win32,58.56172406,1,25,59,27,1,,,,,
1.7789,response_2,shortFoil,LOBSTER,MOLECULE,,,,,,SACRED,GALAXY,long,resources/sound/trials/audio_stim_comp1.mp3,60fedb798cf3ef1b5efca46b,19,Female,Left handed,2021-07-26_20h50.21.913,MA Experiment 2,2021.1.2,Win32,58.56172406,1,26,60,24,1,,,,,
1.7129,response_2,,DIVING,ALCOHOL,,,,,,CORNER,ENGINEER,short,resources/sound/catchTrials/audio_control_human_project14.mp3,60fedb798cf3ef1b5efca46b,19,Female,Left handed,2021-07-26_20h50.21.913,MA Experiment 2,2021.1.2,Win32,58.56172406,,,,,,0,14,14,10,1
1.3795,response_1,longFoil,BURNER,GINGERBREAD,,,,,,ATHLETE,IVORY,long,resources/sound/trials/audio_stim_comp57.mp3,60fedb798cf3ef1b5efca46b,19,Female,Left handed,2021-07-26_20h50.21.913,MA Experiment 2,2021.1.2,Win32,58.56172406,1,27,61,22,1,,,,,
2.0007,response_2,longValid,CURFEW,STRAWBERRY,,,,,,WORKER,VISITOR,long,resources/sound/trials/audio_stim_comp17.mp3,60fedb798cf3ef1b5efca46b,19,Female,Left handed,2021-07-26_20h50.21.913,MA Experiment 2,2021.1.2,Win32,58.56172406,1,28,62,23,1,,,,,
1.1957,response_1,shortValid,PATIENT,LEMONADE,,,,,,RUBBER,PROPERTY,long,resources/sound/trials/audio_stim_human0.mp3,60fedb798cf3ef1b5efca46b,19,Female,Left handed,2021-07-26_20h50.21.913,MA Experiment 2,2021.1.2,Win32,58.56172406,1,29,63,29,1,,,,,
0.9657,response_2,longValid,WALRUS,GALLERY,,,,,,MARBLE,CUSTOMER,short,resources/sound/trials/audio_stim_comp65.mp3,60fedb798cf3ef1b5efca46b,19,Female,Left handed,2021-07-26_20h50.21.913,MA Experiment 2,2021.1.2,Win32,58.56172406,1,30,64,4,1,,,,,
1.9439,response_2,,MOONLIGHT,CAPITAL,,,,,,NAVY,RECTANGLE,short,resources/sound/catchTrials/audio_control_human_project06.mp3,60fedb798cf3ef1b5efca46b,19,Female,Left handed,2021-07-26_20h50.21.913,MA Experiment 2,2021.1.2,Win32,58.56172406,,,,,,0,7,7,14,1
1.713,response_2,shortValid,HAMSTER,MEDICINE,,,,,,PARTY,SANCTUARY,long,resources/sound/trials/audio_stim_human50.mp3,60fedb798cf3ef1b5efca46b,19,Female,Left handed,2021-07-26_20h50.21.913,MA Experiment 2,2021.1.2,Win32,58.56172406,1,31,65,31,1,,,,,
2.363,response_2,shortValid,LEADER,OXYGEN,,,,,,WHISTLE,TREASURER,long,resources/sound/trials/audio_stim_comp12.mp3,60fedb798cf3ef1b5efca46b,19,Female,Left handed,2021-07-26_20h50.21.913,MA Experiment 2,2021.1.2,Win32,58.56172406,1,32,66,20,1,,,,,
1.7288,response_2,longValid,WAFER,ANTIQUE,,,,,,RECEIPT,LIMOUSINE,short,resources/sound/trials/audio_stim_comp40.mp3,60fedb798cf3ef1b5efca46b,19,Female,Left handed,2021-07-26_20h50.21.913,MA Experiment 2,2021.1.2,Win32,58.56172406,1,33,67,2,1,,,,,
1.6123,response_2,shortFoil,SADDLE,COMMITTEE,,,,,,HARDWARE,OVERCOAT,short,resources/sound/trials/audio_stim_human35.mp3,60fedb798cf3ef1b5efca46b,19,Female,Left handed,2021-07-26_20h50.21.913,MA Experiment 2,2021.1.2,Win32,58.56172406,2,0,68,8,1,,,,,
1.6631,response_1,longFoil,FATHER,INSTRUCTOR,,,,,,DAYLIGHT,MATERIAL,short,resources/sound/trials/audio_stim_human42.mp3,60fedb798cf3ef1b5efca46b,19,Female,Left handed,2021-07-26_20h50.21.913,MA Experiment 2,2021.1.2,Win32,58.56172406,2,1,69,9,1,,,,,
1.3627,response_1,shortValid,CEREAL,GINGERBREAD,,,,,,DRIZZLE,CARDINAL,long,resources/sound/trials/audio_stim_comp69.mp3,60fedb798cf3ef1b5efca46b,19,Female,Left handed,2021-07-26_20h50.21.913,MA Experiment 2,2021.1.2,Win32,58.56172406,2,2,70,17,1,,,,,
2.0137,response_2,,MORNING,CLARINET,,,,,,HOBBY,COLONY,long,resources/sound/catchTrials/audio_control_human_project04.mp3,60fedb798cf3ef1b5efca46b,19,Female,Left handed,2021-07-26_20h50.21.913,MA Experiment 2,2021.1.2,Win32,58.56172406,,,,,,0,20,20,27,1
1.9625,response_2,longValid,TUMBLE,CAMERA,,,,,,PAINTER,VEHICLE,short,resources/sound/trials/audio_stim_human47.mp3,60fedb798cf3ef1b5efca46b,19,Female,Left handed,2021-07-26_20h50.21.913,MA Experiment 2,2021.1.2,Win32,58.56172406,2,3,71,11,1,,,,,
1.0289,response_2,longValid,TORTURE,JANITOR,,,,,,HARDWARE,OVERCOAT,long,resources/sound/trials/audio_stim_human35.mp3,60fedb798cf3ef1b5efca46b,19,Female,Left handed,2021-07-26_20h50.21.913,MA Experiment 2,2021.1.2,Win32,58.56172406,2,4,72,25,1,,,,,
1.4796,response_2,shortFoil,CABIN,NEWSPAPER,,,,,,SACRED,GALAXY,short,resources/sound/trials/audio_stim_comp1.mp3,60fedb798cf3ef1b5efca46b,19,Female,Left handed,2021-07-26_20h50.21.913,MA Experiment 2,2021.1.2,Win32,58.56172406,2,5,73,7,1,,,,,
1.4132,response_2,shortFoil,PERSON,HOSPITAL,,,,,,ROBBER,RATTLESNAKE,short,resources/sound/trials/audio_stim_human64.mp3,60fedb798cf3ef1b5efca46b,19,Female,Left handed,2021-07-26_20h50.21.913,MA Experiment 2,2021.1.2,Win32,58.56172406,2,6,74,15,1,,,,,
1.178,response_2,,TWEEZER,REFEREE,,,,,,NAVY,RECTANGLE,long,resources/sound/catchTrials/audio_control_human_project06.mp3,60fedb798cf3ef1b5efca46b,19,Female,Left handed,2021-07-26_20h50.21.913,MA Experiment 2,2021.1.2,Win32,58.56172406,,,,,,0,28,28,30,1
1.5961,response_1,longValid,BURNER,STRAWBERRY,,,,,,ATHLETE,IVORY,long,resources/sound/trials/audio_stim_comp57.mp3,60fedb798cf3ef1b5efca46b,19,Female,Left handed,2021-07-26_20h50.21.913,MA Experiment 2,2021.1.2,Win32,58.56172406,2,7,75,22,1,,,,,
1.8124,response_2,longValid,SINGER,OPENING,,,,,,MINER,EMERALD,short,resources/sound/trials/audio_stim_human6.mp3,60fedb798cf3ef1b5efca46b,19,Female,Left handed,2021-07-26_20h50.21.913,MA Experiment 2,2021.1.2,Win32,58.56172406,2,8,76,13,1,,,,,
0.7956,response_2,longFoil,MURAL,ADMIRAL,,,,,,RUBBER,PROPERTY,short,resources/sound/trials/audio_stim_human0.mp3,60fedb798cf3ef1b5efca46b,19,Female,Left handed,2021-07-26_20h50.21.913,MA Experiment 2,2021.1.2,Win32,58.56172406,2,9,77,12,1,,,,,
1.7955,response_1,longFoil,FAIRY,CABINET,,,,,,MINER,EMERALD,short,resources/sound/trials/audio_stim_comp6.mp3,60fedb798cf3ef1b5efca46b,19,Female,Left handed,2021-07-26_20h50.21.913,MA Experiment 2,2021.1.2,Win32,58.56172406,2,10,78,1,1,,,,,
1.6291,response_1,,KETTLE,TANGERINE,,,,,,JUGGLER,DANDELION,short,resources/sound/catchTrials/audio_control_human_project09.mp3,60fedb798cf3ef1b5efca46b,19,Female,Left handed,2021-07-26_20h50.21.913,MA Experiment 2,2021.1.2,Win32,58.56172406,,,,,,0,9,9,15,1
1.8622,response_2,longFoil,BERRY,LECTURER,,,,,,MARBLE,CUSTOMER,short,resources/sound/trials/audio_stim_comp65.mp3,60fedb798cf3ef1b5efca46b,19,Female,Left handed,2021-07-26_20h50.21.913,MA Experiment 2,2021.1.2,Win32,58.56172406,2,11,79,4,1,,,,,
2.613,response_1,shortValid,LIGHTNING,ALCOHOL,,,,,,WORKER,VISITOR,long,resources/sound/trials/audio_stim_comp17.mp3,60fedb798cf3ef1b5efca46b,19,Female,Left handed,2021-07-26_20h50.21.913,MA Experiment 2,2021.1.2,Win32,58.56172406,2,12,80,23,1,,,,,
2.5801,response_2,longFoil,DIVING,GALLERY,,,,,,SACRED,GALAXY,long,resources/sound/trials/audio_stim_comp1.mp3,60fedb798cf3ef1b5efca46b,19,Female,Left handed,2021-07-26_20h50.21.913,MA Experiment 2,2021.1.2,Win32,58.56172406,2,13,81,24,1,,,,,
1.5771,response_2,shortFoil,VILLAGE,VINEGAR,,,,,,PAINTER,VEHICLE,long,resources/sound/trials/audio_stim_human47.mp3,60fedb798cf3ef1b5efca46b,19,Female,Left handed,2021-07-26_20h50.21.913,MA Experiment 2,2021.1.2,Win32,58.56172406,2,14,82,28,1,,,,,
1.4298,response_2,,SULPHUR,DISSECTION,,,,,,NAVY,RECTANGLE,long,resources/sound/catchTrials/audio_control_comp_project06.mp3,60fedb798cf3ef1b5efca46b,19,Female,Left handed,2021-07-26_20h50.21.913,MA Experiment 2,2021.1.2,Win32,58.56172406,,,,,,0,27,27,22,1
2.1631,response_2,shortValid,CHIPMUNK,FACTORY,,,,,,WHISTLE,TREASURER,short,resources/sound/trials/audio_stim_comp12.mp3,60fedb798cf3ef1b5efca46b,19,Female,Left handed,2021-07-26_20h50.21.913,MA Experiment 2,2021.1.2,Win32,58.56172406,2,15,83,3,1,,,,,
1.196,response_2,longFoil,OLIVE,GYMNASTICS,,,,,,RUBBER,PROPERTY,long,resources/sound/trials/audio_stim_human0.mp3,60fedb798cf3ef1b5efca46b,19,Female,Left handed,2021-07-26_20h50.21.913,MA Experiment 2,2021.1.2,Win32,58.56172406,2,16,84,29,1,,,,,
1.6124,response_1,longFoil,DIAL,ASBESTOS,,,,,,BRAINSTORM,GREEN NEEDLE,short,resources/sound/trials/audio_stim_original.mp3,60fedb798cf3ef1b5efca46b,19,Female,Left handed,2021-07-26_20h50.21.913,MA Experiment 2,2021.1.2,Win32,58.56172406,2,17,85,16,1,,,,,
1.8796,response_2,longValid,KENNEL,CITIZEN,,,,,,PARTY,SANCTUARY,short,resources/sound/trials/audio_stim_human50.mp3,60fedb798cf3ef1b5efca46b,19,Female,Left handed,2021-07-26_20h50.21.913,MA Experiment 2,2021.1.2,Win32,58.56172406,2,18,86,14,1,,,,,
1.4964,response_2,,VAPOUR,MINERAL,,,,,,NAVY,RECTANGLE,short,resources/sound/catchTrials/audio_control_comp_project06.mp3,60fedb798cf3ef1b5efca46b,19,Female,Left handed,2021-07-26_20h50.21.913,MA Experiment 2,2021.1.2,Win32,58.56172406,,,,,,0,10,10,6,1
1.5621,response_1,longFoil,MEASLES,FURNITURE,,,,,,DRIZZLE,CARDINAL,short,resources/sound/trials/audio_stim_comp69.mp3,60fedb798cf3ef1b5efca46b,19,Female,Left handed,2021-07-26_20h50.21.913,MA Experiment 2,2021.1.2,Win32,58.56172406,2,19,87,0,1,,,,,
1.5458,response_2,longValid,NEIGHBOUR,MONUMENT,,,,,,PARTY,SANCTUARY,long,resources/sound/trials/audio_stim_human50.mp3,60fedb798cf3ef1b5efca46b,19,Female,Left handed,2021-07-26_20h50.21.913,MA Experiment 2,2021.1.2,Win32,58.56172406,2,20,88,31,1,,,,,
1.6784,response_1,shortValid,MURDER,MECHANIC,,,,,,BRAINSTORM,GREEN NEEDLE,long,resources/sound/trials/audio_stim_original.mp3,60fedb798cf3ef1b5efca46b,19,Female,Left handed,2021-07-26_20h50.21.913,MA Experiment 2,2021.1.2,Win32,58.56172406,2,21,89,33,1,,,,,
1.0453,response_2,longValid,PATIENT,TEMPERATURE,,,,,,MINER,EMERALD,long,resources/sound/trials/audio_stim_human6.mp3,60fedb798cf3ef1b5efca46b,19,Female,Left handed,2021-07-26_20h50.21.913,MA Experiment 2,2021.1.2,Win32,58.56172406,2,22,90,30,1,,,,,
1.4127,response_1,,HARBOUR,SAXOPHONE,,,,,,POISON,REVOLVER,long,resources/sound/catchTrials/audio_control_human_project01.mp3,60fedb798cf3ef1b5efca46b,19,Female,Left handed,2021-07-26_20h50.21.913,MA Experiment 2,2021.1.2,Win32,58.56172406,,,,,,0,22,22,25,1
1.7628,response_2,shortFoil,STOCKING,CATHEDRAL,,,,,,WHISTLE,TREASURER,long,resources/sound/trials/audio_stim_comp12.mp3,60fedb798cf3ef1b5efca46b,19,Female,Left handed,2021-07-26_20h50.21.913,MA Experiment 2,2021.1.2,Win32,58.56172406,2,23,91,20,1,,,,,
2.0958,response_2,longValid,CIGAR,HURRICANE,,,,,,CONCRETE,ENEMY,short,resources/sound/trials/audio_stim_human67.mp3,60fedb798cf3ef1b5efca46b,19,Female,Left handed,2021-07-26_20h50.21.913,MA Experiment 2,2021.1.2,Win32,58.56172406,2,24,92,10,1,,,,,
1.563,response_2,longValid,WAFER,POTATO,,,,,,WORKER,VISITOR,short,resources/sound/trials/audio_stim_comp17.mp3,60fedb798cf3ef1b5efca46b,19,Female,Left handed,2021-07-26_20h50.21.913,MA Experiment 2,2021.1.2,Win32,58.56172406,2,25,93,6,1,,,,,
3.1299,response_2,shortValid,EVENING,ATHLETICS,,,,,,RECEIPT,LIMOUSINE,short,resources/sound/trials/audio_stim_comp40.mp3,60fedb798cf3ef1b5efca46b,19,Female,Left handed,2021-07-26_20h50.21.913,MA Experiment 2,2021.1.2,Win32,58.56172406,2,26,94,2,1,,,,,
1.296,response_2,,BUTTER,MICROSCOPE,,,,,,IRIS,VIOLIN,long,resources/sound/catchTrials/audio_control_comp_project12.mp3,60fedb798cf3ef1b5efca46b,19,Female,Left handed,2021-07-26_20h50.21.913,MA Experiment 2,2021.1.2,Win32,58.56172406,,,,,,0,25,25,20,1
1.2608,response_1,shortFoil,RUSTY,SETTLEMENT,,,,,,ATHLETE,IVORY,short,resources/sound/trials/audio_stim_comp57.mp3,60fedb798cf3ef1b5efca46b,19,Female,Left handed,2021-07-26_20h50.21.913,MA Experiment 2,2021.1.2,Win32,58.56172406,2,27,95,5,1,,,,,
2.4784,response_1,shortValid,MISTRESS,CROCODILE,,,,,,CONCRETE,ENEMY,long,resources/sound/trials/audio_stim_human67.mp3,60fedb798cf3ef1b5efca46b,19,Female,Left handed,2021-07-26_20h50.21.913,MA Experiment 2,2021.1.2,Win32,58.56172406,2,28,96,27,1,,,,,
1.5456,response_2,shortFoil,BISHOP,CORRIDOR,,,,,,MARBLE,CUSTOMER,long,resources/sound/trials/audio_stim_comp65.mp3,60fedb798cf3ef1b5efca46b,19,Female,Left handed,2021-07-26_20h50.21.913,MA Experiment 2,2021.1.2,Win32,58.56172406,2,29,97,21,1,,,,,
1.6814,response_1,shortValid,ACRE,PHOTOGRAPH,,,,,,DAYLIGHT,MATERIAL,long,resources/sound/trials/audio_stim_human42.mp3,60fedb798cf3ef1b5efca46b,19,Female,Left handed,2021-07-26_20h50.21.913,MA Experiment 2,2021.1.2,Win32,58.56172406,2,30,98,26,1,,,,,
1.9957,response_2,,OFFICE,CANDLELIGHT,,,,,,HOBBY,COLONY,short,resources/sound/catchTrials/audio_control_comp_project04.mp3,60fedb798cf3ef1b5efca46b,19,Female,Left handed,2021-07-26_20h50.21.913,MA Experiment 2,2021.1.2,Win32,58.56172406,,,,,,0,30,30,2,1
2.747,response_1,shortFoil,DANCER,CHOCOLATE,,,,,,MINER,EMERALD,long,resources/sound/trials/audio_stim_comp6.mp3,60fedb798cf3ef1b5efca46b,19,Female,Left handed,2021-07-26_20h50.21.913,MA Experiment 2,2021.1.2,Win32,58.56172406,2,31,99,18,1,,,,,
1.3956,response_2,longValid,LIQUID,ENAMEL,,,,,,ROBBER,RATTLESNAKE,long,resources/sound/trials/audio_stim_human64.mp3,60fedb798cf3ef1b5efca46b,19,Female,Left handed,2021-07-26_20h50.21.913,MA Experiment 2,2021.1.2,Win32,58.56172406,2,32,100,32,1,,,,,
1.4128,response_2,longFoil,MOONLIGHT,DIAMOND,,,,,,RECEIPT,LIMOUSINE,long,resources/sound/trials/audio_stim_comp40.mp3,60fedb798cf3ef1b5efca46b,19,Female,Left handed,2021-07-26_20h50.21.913,MA Experiment 2,2021.1.2,Win32,58.56172406,2,33,101,19,1,,,,,
1.5294,response_2,shortFoil,SHOULDER,PROFESSOR,,,,,,MARBLE,CUSTOMER,short,resources/sound/trials/audio_stim_comp65.mp3,60fedb798cf3ef1b5efca46b,19,Female,Left handed,2021-07-26_20h50.21.913,MA Experiment 2,2021.1.2,Win32,58.56172406,3,0,102,4,1,,,,,
2.5747,response_2,longValid,FEVER,SPECIALIST,,,,,,RECEIPT,LIMOUSINE,long,resources/sound/trials/audio_stim_comp40.mp3,60fedb798cf3ef1b5efca46b,19,Female,Left handed,2021-07-26_20h50.21.913,MA Experiment 2,2021.1.2,Win32,58.56172406,3,1,103,19,1,,,,,
3.1286,response_2,shortFoil,ANCHOR,DESTROYER,,,,,,WHISTLE,TREASURER,short,resources/sound/trials/audio_stim_comp12.mp3,60fedb798cf3ef1b5efca46b,19,Female,Left handed,2021-07-26_20h50.21.913,MA Experiment 2,2021.1.2,Win32,58.56172406,3,2,104,3,1,,,,,
1.368,response_2,,INVOICE,ABDOMEN,,,,,,HOBBY,COLONY,long,resources/sound/catchTrials/audio_control_comp_project04.mp3,60fedb798cf3ef1b5efca46b,19,Female,Left handed,2021-07-26_20h50.21.913,MA Experiment 2,2021.1.2,Win32,58.56172406,,,,,,0,17,17,18,1
1.8292,response_1,shortValid,NAPKIN,ORNAMENT,,,,,,DRIZZLE,CARDINAL,short,resources/sound/trials/audio_stim_comp69.mp3,60fedb798cf3ef1b5efca46b,19,Female,Left handed,2021-07-26_20h50.21.913,MA Experiment 2,2021.1.2,Win32,58.56172406,3,3,105,0,1,,,,,
1.1241,response_1,shortValid,MEDICINE,UMBRELLA,,,,,,MINER,EMERALD,short,resources/sound/trials/audio_stim_human6.mp3,60fedb798cf3ef1b5efca46b,19,Female,Left handed,2021-07-26_20h50.21.913,MA Experiment 2,2021.1.2,Win32,58.56172406,3,4,106,13,1,,,,,
1.8295,response_1,longValid,FOREARM,INSTRUMENT,,,,,,WHISTLE,TREASURER,long,resources/sound/trials/audio_stim_comp12.mp3,60fedb798cf3ef1b5efca46b,19,Female,Left handed,2021-07-26_20h50.21.913,MA Experiment 2,2021.1.2,Win32,58.56172406,3,5,107,20,1,,,,,
1.779,response_1,longValid,VALLEY,NEIGHBOURHOOD,,,,,,HARDWARE,OVERCOAT,short,resources/sound/trials/audio_stim_human35.mp3,60fedb798cf3ef1b5efca46b,19,Female,Left handed,2021-07-26_20h50.21.913,MA Experiment 2,2021.1.2,Win32,58.56172406,3,6,108,8,1,,,,,
2.0462,response_2,,HURDLE,AVENUE,,,,,,HOBBY,COLONY,short,resources/sound/catchTrials/audio_control_human_project04.mp3,60fedb798cf3ef1b5efca46b,19,Female,Left handed,2021-07-26_20h50.21.913,MA Experiment 2,2021.1.2,Win32,58.56172406,,,,,,0,12,12,11,1
0.5302,response_1,shortFoil,CANTEEN,APPLIANCE,,,,,,MINER,EMERALD,short,resources/sound/trials/audio_stim_comp6.mp3,60fedb798cf3ef1b5efca46b,19,Female,Left handed,2021-07-26_20h50.21.913,MA Experiment 2,2021.1.2,Win32,58.56172406,3,7,109,1,1,,,,,
0.5801,response_1,shortFoil,LEADER,MEDICINE,,,,,,CONCRETE,ENEMY,long,resources/sound/trials/audio_stim_human67.mp3,60fedb798cf3ef1b5efca46b,19,Female,Left handed,2021-07-26_20h50.21.913,MA Experiment 2,2021.1.2,Win32,58.56172406,3,8,110,27,1,,,,,
0.5631,response_1,shortFoil,INCOME,MINISTER,,,,,,PARTY,SANCTUARY,long,resources/sound/trials/audio_stim_human50.mp3,60fedb798cf3ef1b5efca46b,19,Female,Left handed,2021-07-26_20h50.21.913,MA Experiment 2,2021.1.2,Win32,58.56172406,3,9,111,31,1,,,,,
1.529,response_2,shortValid,JURY,BEVERAGE,,,,,,ROBBER,RATTLESNAKE,long,resources/sound/trials/audio_stim_human64.mp3,60fedb798cf3ef1b5efca46b,19,Female,Left handed,2021-07-26_20h50.21.913,MA Experiment 2,2021.1.2,Win32,58.56172406,3,10,112,32,1,,,,,
1.4128,response_2,,DECOY,HEADQUARTERS,,,,,,CORNER,ENGINEER,long,resources/sound/catchTrials/audio_control_comp_project14.mp3,60fedb798cf3ef1b5efca46b,19,Female,Left handed,2021-07-26_20h50.21.913,MA Experiment 2,2021.1.2,Win32,58.56172406,,,,,,0,23,23,17,1
1.3628,response_1,shortFoil,DUEL,CARNATION,,,,,,ATHLETE,IVORY,long,resources/sound/trials/audio_stim_comp57.mp3,60fedb798cf3ef1b5efca46b,19,Female,Left handed,2021-07-26_20h50.21.913,MA Experiment 2,2021.1.2,Win32,58.56172406,3,11,113,22,1,,,,,
1.8796,response_2,longValid,SCOOTER,FISHERMAN,,,,,,DRIZZLE,CARDINAL,long,resources/sound/trials/audio_stim_comp69.mp3,60fedb798cf3ef1b5efca46b,19,Female,Left handed,2021-07-26_20h50.21.913,MA Experiment 2,2021.1.2,Win32,58.56172406,3,12,114,17,1,,,,,
1.2287,response_1,longValid,HAMSTER,PHYSICIAN,,,,,,ATHLETE,IVORY,short,resources/sound/trials/audio_stim_comp57.mp3,60fedb798cf3ef1b5efca46b,19,Female,Left handed,2021-07-26_20h50.21.913,MA Experiment 2,2021.1.2,Win32,58.56172406,3,13,115,5,1,,,,,
1.6629,response_1,shortValid,PIPING,MERCURY,,,,,,SACRED,GALAXY,long,resources/sound/trials/audio_stim_comp1.mp3,60fedb798cf3ef1b5efca46b,19,Female,Left handed,2021-07-26_20h50.21.913,MA Experiment 2,2021.1.2,Win32,58.56172406,3,14,116,24,1,,,,,
1.763,response_1,,HAMMER,CINNAMON,,,,,,VIOLET,LUBRICANT,long,resources/sound/catchTrials/audio_control_human_project07.mp3,60fedb798cf3ef1b5efca46b,19,Female,Left handed,2021-07-26_20h50.21.913,MA Experiment 2,2021.1.2,Win32,58.56172406,,,,,,0,1,1,28,1
0.5451,response_2,shortFoil,CAPTAIN,GRASSHOPPER,,,,,,HARDWARE,OVERCOAT,long,resources/sound/trials/audio_stim_human35.mp3,60fedb798cf3ef1b5efca46b,19,Female,Left handed,2021-07-26_20h50.21.913,MA Experiment 2,2021.1.2,Win32,58.56172406,3,15,117,25,1,,,,,
0.5801,response_2,longFoil,STATION,INFECTION,,,,,,PARTY,SANCTUARY,short,resources/sound/trials/audio_stim_human50.mp3,60fedb798cf3ef1b5efca46b,19,Female,Left handed,2021-07-26_20h50.21.913,MA Experiment 2,2021.1.2,Win32,58.56172406,3,16,118,14,1,,,,,
0.5801,response_1,longValid,SOFA,LEMONADE,,,,,,DAYLIGHT,MATERIAL,long,resources/sound/trials/audio_stim_human42.mp3,60fedb798cf3ef1b5efca46b,19,Female,Left handed,2021-07-26_20h50.21.913,MA Experiment 2,2021.1.2,Win32,58.56172406,3,17,119,26,1,,,,,
1.9448,response_2,shortValid,UNCLE,COMMITTEE,,,,,,PAINTER,VEHICLE,long,resources/sound/trials/audio_stim_human47.mp3,60fedb798cf3ef1b5efca46b,19,Female,Left handed,2021-07-26_20h50.21.913,MA Experiment 2,2021.1.2,Win32,58.56172406,3,18,120,28,1,,,,,
0.8464,response_2,,PODIUM,EMULSION,,,,,,ICY,JITTERBUG,long,resources/sound/catchTrials/audio_control_comp_project08.mp3,60fedb798cf3ef1b5efca46b,19,Female,Left handed,2021-07-26_20h50.21.913,MA Experiment 2,2021.1.2,Win32,58.56172406,,,,,,0,31,31,23,1
1.4461,response_2,longValid,WIRE,HANDKERCHIEF,,,,,,MINER,EMERALD,long,resources/sound/trials/audio_stim_comp6.mp3,60fedb798cf3ef1b5efca46b,19,Female,Left handed,2021-07-26_20h50.21.913,MA Experiment 2,2021.1.2,Win32,58.56172406,3,19,121,18,1,,,,,
1.6129,response_1,shortValid,WINDOW,OXYGEN,,,,,,CONCRETE,ENEMY,short,resources/sound/trials/audio_stim_human67.mp3,60fedb798cf3ef1b5efca46b,19,Female,Left handed,2021-07-26_20h50.21.913,MA Experiment 2,2021.1.2,Win32,58.56172406,3,20,122,10,1,,,,,
1.9291,response_2,longFoil,VESSEL,AMMONIA,,,,,,WORKER,VISITOR,short,resources/sound/trials/audio_stim_comp17.mp3,60fedb798cf3ef1b5efca46b,19,Female,Left handed,2021-07-26_20h50.21.913,MA Experiment 2,2021.1.2,Win32,58.56172406,3,21,123,6,1,,,,,
0.9463,response_2,longFoil,NECKLACE,CAPITAL,,,,,,MARBLE,CUSTOMER,long,resources/sound/trials/audio_stim_comp65.mp3,60fedb798cf3ef1b5efca46b,19,Female,Left handed,2021-07-26_20h50.21.913,MA Experiment 2,2021.1.2,Win32,58.56172406,3,22,124,21,1,,,,,
1.6456,response_2,,POLO,CIGARETTE,,,,,,CORNER,ENGINEER,long,resources/sound/catchTrials/audio_control_human_project14.mp3,60fedb798cf3ef1b5efca46b,19,Female,Left handed,2021-07-26_20h50.21.913,MA Experiment 2,2021.1.2,Win32,58.56172406,,,,,,0,13,13,26,1
2.3954,response_1,longFoil,TRAITOR,INTERVIEW,,,,,,BRAINSTORM,GREEN NEEDLE,long,resources/sound/trials/audio_stim_original.mp3,60fedb798cf3ef1b5efca46b,19,Female,Left handed,2021-07-26_20h50.21.913,MA Experiment 2,2021.1.2,Win32,58.56172406,3,23,125,33,1,,,,,
1.493,response_1,shortValid,TEMPLE,ACROBAT,,,,,,SACRED,GALAXY,short,resources/sound/trials/audio_stim_comp1.mp3,60fedb798cf3ef1b5efca46b,19,Female,Left handed,2021-07-26_20h50.21.913,MA Experiment 2,2021.1.2,Win32,58.56172406,3,24,126,7,1,,,,,
1.2632,response_2,shortFoil,CRYSTAL,HEROIN,,,,,,RECEIPT,LIMOUSINE,short,resources/sound/trials/audio_stim_comp40.mp3,60fedb798cf3ef1b5efca46b,19,Female,Left handed,2021-07-26_20h50.21.913,MA Experiment 2,2021.1.2,Win32,58.56172406,3,25,127,2,1,,,,,
1.8626,response_1,shortFoil,NOVEL,HONEYMOON,,,,,,BRAINSTORM,GREEN NEEDLE,short,resources/sound/trials/audio_stim_original.mp3,60fedb798cf3ef1b5efca46b,19,Female,Left handed,2021-07-26_20h50.21.913,MA Experiment 2,2021.1.2,Win32,58.56172406,3,26,128,16,1,,,,,
2.1964,response_2,,LOBSTER,ATTENDANT,,,,,,IRIS,VIOLIN,long,resources/sound/catchTrials/audio_control_human_project12.mp3,60fedb798cf3ef1b5efca46b,19,Female,Left handed,2021-07-26_20h50.21.913,MA Experiment 2,2021.1.2,Win32,58.56172406,,,,,,0,5,5,24,1
1.8794,response_2,longValid,SHEEPSKIN,POLIO,,,,,,RUBBER,PROPERTY,short,resources/sound/trials/audio_stim_human0.mp3,60fedb798cf3ef1b5efca46b,19,Female,Left handed,2021-07-26_20h50.21.913,MA Experiment 2,2021.1.2,Win32,58.56172406,3,27,129,12,1,,,,,
0.6301,response_2,longFoil,EARTHWORM,MOSQUITO,,,,,,WORKER,VISITOR,long,resources/sound/trials/audio_stim_comp17.mp3,60fedb798cf3ef1b5efca46b,19,Female,Left handed,2021-07-26_20h50.21.913,MA Experiment 2,2021.1.2,Win32,58.56172406,3,28,130,23,1,,,,,
2.2467,response_2,shortValid,RABBI,FIREWOOD,,,,,,PAINTER,VEHICLE,short,resources/sound/trials/audio_stim_human47.mp3,60fedb798cf3ef1b5efca46b,19,Female,Left handed,2021-07-26_20h50.21.913,MA Experiment 2,2021.1.2,Win32,58.56172406,3,29,131,11,1,,,,,
1.3626,response_2,longFoil,WALRUS,RETAILER,,,,,,ROBBER,RATTLESNAKE,short,resources/sound/trials/audio_stim_human64.mp3,60fedb798cf3ef1b5efca46b,19,Female,Left handed,2021-07-26_20h50.21.913,MA Experiment 2,2021.1.2,Win32,58.56172406,3,30,132,15,1,,,,,
0.9963,response_2,,SEGMENT,PROPELLER,,,,,,BORDER,ALGEBRA,long,resources/sound/catchTrials/audio_control_comp_project00.mp3,60fedb798cf3ef1b5efca46b,19,Female,Left handed,2021-07-26_20h50.21.913,MA Experiment 2,2021.1.2,Win32,58.56172406,,,,,,0,16,16,16,1
2.3966,response_1,shortFoil,BEETLE,CONVENTION,,,,,,DAYLIGHT,MATERIAL,short,resources/sound/trials/audio_stim_human42.mp3,60fedb798cf3ef1b5efca46b,19,Female,Left handed,2021-07-26_20h50.21.913,MA Experiment 2,2021.1.2,Win32,58.56172406,3,31,133,9,1,,,,,
1.6958,response_2,longValid,KERNEL,GOVERNMENT,,,,,,RUBBER,PROPERTY,long,resources/sound/trials/audio_stim_human0.mp3,60fedb798cf3ef1b5efca46b,19,Female,Left handed,2021-07-26_20h50.21.913,MA Experiment 2,2021.1.2,Win32,58.56172406,3,32,134,29,1,,,,,
1.5619,response_1,longFoil,GRADUATE,FAMILY,,,,,,MINER,EMERALD,long,resources/sound/trials/audio_stim_human6.mp3,60fedb798cf3ef1b5efca46b,19,Female,Left handed,2021-07-26_20h50.21.913,MA Experiment 2,2021.1.2,Win32,58.56172406,3,33,135,30,1,,,,,
